timestamp,flex_thumb,flex_index,flex_middle,gyro_x,gyro_y,gyro_z,accel_x,accel_y,accel_z,label,datetime
103479,26,44,14,16.31,8.75,-6.53,-0.91,0.1,0.1,B,2026-01-02 09:52:27
104033,22,35,12,-2.08,18.55,-0.82,-0.91,0.15,-0.19,B,2026-01-02 09:52:28
104487,22,39,9,-2.72,-5.4,2.85,-0.93,0.2,-0.12,B,2026-01-02 09:52:28
104988,24,22,13,-7.25,6.85,0.52,-0.97,0.19,-0.03,B,2026-01-02 09:52:29
105498,25,33,17,-4.61,0,0.55,-0.97,0.19,-0.05,B,2026-01-02 09:52:29
105998,24,44,9,10.32,5.27,6.05,-0.99,0.21,-0.03,B,2026-01-02 09:52:30
106499,27,35,17,6.55,7.3,4.58,-0.94,0.18,-0.05,B,2026-01-02 09:52:30
107047,23,33,7,2.02,5.24,5.8,-0.98,0.27,-0.01,B,2026-01-02 09:52:31
107547,27,35,1,-4.11,4.27,5.31,-0.95,0.22,-0.05,B,2026-01-02 09:52:31
108102,21,33,5,8.55,10.4,13.31,-0.98,0.27,-0.07,B,2026-01-02 09:52:32
108657,18,30,1,-8.43,11.16,-18.52,-1.01,0.3,0.06,B,2026-01-02 09:52:32
109105,23,48,1,-6.03,8.79,3.31,-0.93,0.23,0.12,B,2026-01-02 09:52:33
109607,19,43,5,-0.24,14.66,1.53,-0.97,0.3,0.02,B,2026-01-02 09:52:33
110150,20,35,5,-3.07,0.17,1.04,-0.96,0.26,-0.04,B,2026-01-02 09:52:34
110650,18,37,4,-1.27,2.14,-1.3,-0.95,0.27,-0.05,B,2026-01-02 09:52:34
111151,19,37,9,-2.17,-0.5,0.34,-0.95,0.25,-0.02,B,2026-01-02 09:52:35
111706,19,35,11,0.79,4.7,1.27,-0.96,0.26,0,B,2026-01-02 09:52:36
112173,20,37,11,-3.27,1.01,2.23,-0.95,0.23,-0.03,B,2026-01-02 09:52:36
112676,21,37,9,1.21,5.28,3.08,-0.97,0.27,-0.03,B,2026-01-02 09:52:36
113229,21,39,16,-0.34,0.98,-1.62,-0.94,0.23,-0.06,B,2026-01-02 09:52:37
113783,20,33,17,-1.74,1.18,-0.24,-0.95,0.24,0.01,B,2026-01-02 09:52:38
114229,22,30,11,-0.73,-12.29,30.05,-0.93,0.34,-0.12,B,2026-01-02 09:52:38
114730,23,39,20,-1.76,2.47,0.23,-0.91,0.25,-0.12,B,2026-01-02 09:52:38
115286,18,35,8,-20.58,2.15,15.28,-0.99,0.22,0.07,B,2026-01-02 09:52:39
115765,22,41,14,-133.73,16.7,-28.11,-0.86,0.19,0.11,B,2026-01-02 09:52:40
116267,29,48,4,-12.85,11.56,10.93,-1,0.11,-0.2,B,2026-01-02 09:52:40
116767,25,48,21,-6.29,0.29,-0.89,-0.9,0.15,-0.13,B,2026-01-02 09:52:41
117287,28,39,14,-5.28,1.91,-1.04,-0.94,0.01,-0.19,B,2026-01-02 09:52:41
117798,26,46,22,-5.21,2.79,0.85,-0.96,0.04,-0.2,B,2026-01-02 09:52:42
118306,28,52,18,11.73,5.13,-1.54,-0.96,0.07,-0.2,B,2026-01-02 09:52:42
118824,30,43,21,295.33,-13.92,48.05,-0.97,-0.19,-0.2,B,2026-01-02 09:52:43
119357,29,52,22,-15.37,3.69,-9.88,-0.72,0.15,-0.26,B,2026-01-02 09:52:43
119911,27,44,22,-3.21,1.24,-2.96,-0.99,0.09,-0.01,B,2026-01-02 09:52:44
120466,26,41,16,13.39,1.08,8.26,-0.98,0.15,-0.05,B,2026-01-02 09:52:44
120917,26,46,21,85.59,-24.7,-4.87,-0.91,0.27,-0.08,B,2026-01-02 09:52:45
121418,27,35,14,43.33,-21.88,3.04,-0.96,0.34,-0.13,B,2026-01-02 09:52:45
121918,27,30,11,37.5,3.68,8.7,-0.9,0.39,0,B,2026-01-02 09:52:46
122469,24,24,20,36.47,-7.31,10.26,-0.97,0.26,0.06,B,2026-01-02 09:52:46
123024,24,31,14,-4.53,-8.38,-0.46,-0.93,0.26,-0.15,B,2026-01-02 09:52:47
123471,25,41,22,-100.03,41.34,-27.1,-0.93,0.22,-0.16,B,2026-01-02 09:52:47
123972,18,33,8,-12.63,-15.04,13.36,-0.98,0.21,-0.1,B,2026-01-02 09:52:48
124472,19,17,14,-3.57,25.04,-2.35,-1.04,0.31,0.03,B,2026-01-02 09:52:48
124978,19,33,33,1.15,-26.24,1.83,-0.99,0.22,-0.23,B,2026-01-02 09:52:49
125480,21,31,0,-6.55,-2.15,0,-0.93,0.18,-0.15,B,2026-01-02 09:52:49
125990,19,37,13,-3.4,-1.48,-0.03,-0.94,0.21,-0.09,B,2026-01-02 09:52:50
126491,19,33,20,-7.45,-0.92,5.18,-0.96,0.2,-0.07,B,2026-01-02 09:52:50
127046,19,33,17,-2.38,-10.44,12.85,-1.11,0.27,0.05,B,2026-01-02 09:52:51
127497,21,28,16,-9.97,9.62,4.2,-0.95,0.22,-0.12,B,2026-01-02 09:52:51
128037,21,30,1,-8.41,-0.75,-4.49,-0.94,0.23,-0.08,B,2026-01-02 09:52:52
128556,20,28,20,10.03,5.01,-0.05,-0.95,0.21,-0.09,B,2026-01-02 09:52:52
129068,20,31,24,-2.53,-2.58,-2.32,-0.98,0.24,-0.17,B,2026-01-02 09:52:53
129619,18,26,18,2.15,3.8,6.15,-0.96,0.18,-0.1,B,2026-01-02 09:52:53
130120,22,30,14,-4.44,4.17,-2.58,-0.95,0.18,-0.11,B,2026-01-02 09:52:54
130676,19,15,12,-2.4,3.94,0.29,-0.98,0.19,-0.09,B,2026-01-02 09:52:54
131128,22,35,20,-5.4,1.47,-1.68,-0.96,0.18,-0.09,B,2026-01-02 09:52:55
131628,20,30,18,-5.16,3.85,-2.21,-0.96,0.21,-0.09,B,2026-01-02 09:52:55
132134,20,30,24,3.59,6.82,3.53,-0.97,0.19,-0.08,B,2026-01-02 09:52:56
132647,20,35,18,0.52,2.67,8.2,-0.95,0.24,-0.09,B,2026-01-02 09:52:56
133199,18,33,14,-5.69,7.77,1.5,-1,0.22,-0.05,B,2026-01-02 09:52:57
133700,19,22,18,-2.4,2.46,-1.88,-0.95,0.2,-0.1,B,2026-01-02 09:52:57
134201,23,35,22,-1.16,0.7,0.34,-0.97,0.19,-0.09,B,2026-01-02 09:52:58
134703,34,41,22,-12.09,-5.13,-1.36,-0.95,0.17,-0.09,B,2026-01-02 09:52:58
135258,34,43,32,-0.92,1.51,-3.63,-0.96,0.17,-0.12,B,2026-01-02 09:52:59
135814,30,44,29,-5.02,1.05,0.37,-0.96,0.18,-0.11,B,2026-01-02 09:53:00
136270,31,44,32,-2.58,1.8,0.61,-0.96,0.19,-0.11,B,2026-01-02 09:53:00
136771,31,39,30,-2.92,2.06,-1.01,-0.97,0.18,-0.11,B,2026-01-02 09:53:01
137272,32,43,26,-3.07,1.86,0.18,-0.96,0.19,-0.1,B,2026-01-02 09:53:01
137828,34,44,28,-3.01,2.56,2.18,-0.98,0.19,-0.11,B,2026-01-02 09:53:02
138384,33,39,32,0.27,2.98,2.52,-0.96,0.18,-0.11,B,2026-01-02 09:53:02
138848,35,44,36,-1.53,2.35,-1.1,-0.96,0.18,-0.11,B,2026-01-02 09:53:03
139403,34,41,32,-1.22,1.98,0.24,-0.96,0.18,-0.1,B,2026-01-02 09:53:03
139858,32,39,26,0.32,3.25,0.08,-0.98,0.18,-0.1,B,2026-01-02 09:53:04
140358,33,44,29,7.68,54.78,5.56,-0.93,0.24,-0.28,B,2026-01-02 09:53:04
140910,34,44,24,-2.55,-1.25,0.23,-0.95,0.18,-0.24,B,2026-01-02 09:53:05
141465,31,39,29,0,2.35,3.88,-0.95,0.18,-0.22,B,2026-01-02 09:53:05
141967,34,43,32,-4.02,1.21,-1.02,-0.95,0.2,-0.22,B,2026-01-02 09:53:06
142516,33,43,32,-2.47,3.01,-0.63,-0.95,0.19,-0.22,B,2026-01-02 09:53:06
143016,32,33,22,-2.79,2.78,-2.12,-0.95,0.19,-0.2,B,2026-01-02 09:53:07
143517,31,44,30,-4.17,0.08,-0.5,-0.97,0.18,-0.2,B,2026-01-02 09:53:07
144017,31,31,26,-3.07,1.95,-0.78,-0.97,0.19,-0.18,B,2026-01-02 09:53:08
144528,30,35,22,-3.28,3.98,-0.14,-0.94,0.18,-0.19,B,2026-01-02 09:53:08
145039,31,39,28,-2.41,2.35,-1.13,-0.96,0.18,-0.19,B,2026-01-02 09:53:09
145549,31,46,29,0.64,9.05,1.16,-0.97,0.2,-0.19,B,2026-01-02 09:53:09
146103,31,37,29,3.89,6.31,-3.86,-0.93,0.19,-0.23,B,2026-01-02 09:53:10
146657,30,41,32,-0.55,-1.42,-6.15,-0.92,0.13,-0.19,B,2026-01-02 09:53:10
147210,35,43,24,-2.76,7.68,-3.4,-0.94,0.17,-0.19,B,2026-01-02 09:53:11
147711,37,44,32,-3.3,-0.32,2.52,-0.94,0.18,-0.17,B,2026-01-02 09:53:12
148219,35,44,34,0.95,1.62,5.91,-0.97,0.19,-0.16,B,2026-01-02 09:53:12
148728,36,46,36,1.11,-1.34,1.05,-0.96,0.18,-0.18,B,2026-01-02 09:53:13
149238,39,57,29,-1.95,0.38,-0.53,-0.97,0.16,-0.16,B,2026-01-02 09:53:13
149789,39,46,34,-2.03,2.38,1.47,-0.97,0.17,-0.16,B,2026-01-02 09:53:14
150291,36,41,30,-1.91,3.33,-0.78,-0.95,0.17,-0.18,B,2026-01-02 09:53:14
150793,33,41,37,-0.9,2.15,-0.5,-0.97,0.16,-0.17,B,2026-01-02 09:53:15
151294,35,43,29,-3.37,-0.29,-0.75,-0.93,0.17,-0.19,B,2026-01-02 09:53:15
151796,34,50,45,-2.82,8.63,1.39,-0.95,0.18,-0.18,B,2026-01-02 09:53:16
152304,36,44,26,-3.34,2.08,-0.64,-0.95,0.16,-0.18,B,2026-01-02 09:53:16
152830,37,46,37,-1.95,3.1,0.61,-0.96,0.16,-0.17,B,2026-01-02 09:53:17
153330,41,67,36,0.34,3.77,-0.21,-0.97,0.15,-0.16,B,2026-01-02 09:53:17
153848,40,48,36,-0.32,7.15,-3.25,-1,0.16,-0.18,B,2026-01-02 09:53:18
154359,44,65,43,0.21,2.89,2.82,-0.96,0.16,-0.17,B,2026-01-02 09:53:18
154863,44,69,43,1.1,-1.5,0.55,-0.96,0.2,-0.2,B,2026-01-02 09:53:19
155364,43,52,43,-0.7,1.33,1.8,-0.95,0.18,-0.19,B,2026-01-02 09:53:19
155919,46,59,46,-1.63,2.9,1.51,-0.95,0.18,-0.19,B,2026-01-02 09:53:20
156421,42,50,43,-1.15,1.53,0.66,-0.94,0.16,-0.19,B,2026-01-02 09:53:20
156922,43,59,43,-1.6,3.77,0.4,-0.94,0.16,-0.19,B,2026-01-02 09:53:21
157438,44,56,43,-2.95,3.02,3.51,-0.95,0.16,-0.2,B,2026-01-02 09:53:21
157940,48,50,43,-0.95,0.58,-1.16,-0.96,0.18,-0.21,B,2026-01-02 09:53:22
158496,43,50,42,-7.31,5.83,-4.15,-0.97,0.17,-0.16,B,2026-01-02 09:53:22
158964,42,44,43,-12.03,-7.39,-12.34,-1,0.13,-0.2,B,2026-01-02 09:53:23
159478,43,50,45,-0.81,-5.94,-2.75,-0.9,0.12,-0.19,B,2026-01-02 09:53:23
159988,43,50,24,8.31,-3.34,-1.13,-0.96,0.23,-0.08,B,2026-01-02 09:53:24
160493,45,56,41,4.93,-2.09,15.88,-0.96,0.2,-0.11,B,2026-01-02 09:53:24
160993,46,59,43,-4,-0.53,4.5,-0.97,0.23,-0.13,B,2026-01-02 09:53:25
161548,45,41,39,-6.2,-2.12,-16.23,-0.94,0.21,-0.11,B,2026-01-02 09:53:25
161997,43,50,41,-4.32,10.09,-4.78,-0.97,0.16,-0.13,B,2026-01-02 09:53:26
162549,43,52,42,-0.55,1.79,-0.03,-0.95,0.19,-0.12,B,2026-01-02 09:53:26
163060,44,50,42,-0.73,4.89,4.84,-0.96,0.16,-0.08,B,2026-01-02 09:53:27
163575,45,44,42,-0.38,3.15,-4.06,-0.97,0.17,-0.1,B,2026-01-02 09:53:27
164085,45,57,38,-2.55,2.18,2.72,-0.98,0.15,-0.1,B,2026-01-02 09:53:28
164639,45,50,45,-1.4,6.02,3.37,-0.95,0.18,-0.11,B,2026-01-02 09:53:28
165108,44,44,42,-0.47,2.26,1.04,-0.98,0.18,-0.12,B,2026-01-02 09:53:29
165619,45,50,46,6.58,7.02,2.98,-0.94,0.14,-0.11,B,2026-01-02 09:53:29
166138,44,50,42,9.5,9.4,-0.27,-0.87,0.14,-0.22,B,2026-01-02 09:53:30
166647,43,57,39,-2.53,5.45,1.69,-0.97,0.2,-0.07,B,2026-01-02 09:53:30
167199,40,48,38,-2.53,3.42,-2.05,-0.98,0.2,-0.03,B,2026-01-02 09:53:31
167754,44,59,37,-4.93,1.73,-2.98,-0.97,0.22,-0.02,B,2026-01-02 09:53:32
168202,42,59,29,-2.06,3.15,1.33,-0.96,0.2,-0.06,B,2026-01-02 09:53:32
168704,45,65,34,-2.49,3.05,1.11,-0.96,0.18,-0.06,B,2026-01-02 09:53:32
169208,43,63,37,-2.99,3.3,0.32,-0.96,0.17,-0.04,B,2026-01-02 09:53:33
169718,43,52,42,-1.74,3.25,-1.48,-0.97,0.17,-0.06,B,2026-01-02 09:53:33
170270,43,67,36,-2.32,2.64,3.19,-0.97,0.16,-0.05,B,2026-01-02 09:53:34
170770,43,65,42,-0.81,3.4,1.04,-0.98,0.18,-0.03,B,2026-01-02 09:53:35
171271,42,44,32,-1.22,5.54,1.57,-0.98,0.17,-0.05,B,2026-01-02 09:53:35
171827,44,56,42,-2.31,3.51,0.2,-0.96,0.15,-0.06,B,2026-01-02 09:53:36
172380,42,59,43,-5.33,1.77,-2.52,-0.97,0.15,-0.05,B,2026-01-02 09:53:36
172890,42,50,42,-1.71,1.76,-0.84,-0.98,0.16,-0.05,B,2026-01-02 09:53:37
173391,43,61,43,-2.11,3.24,-0.61,-0.95,0.15,-0.05,B,2026-01-02 09:53:37
173923,44,52,29,-7.76,0.17,-3.94,-1.02,0.13,-0.05,B,2026-01-02 09:53:38
174478,45,59,42,-4.87,3.47,1.18,-0.98,0.18,-0.03,B,2026-01-02 09:53:38
174980,44,59,30,0.11,1.8,4.72,-0.97,0.13,-0.03,B,2026-01-02 09:53:39
175481,46,48,43,-2.27,-0.41,-1.16,-0.97,0.12,-0.04,B,2026-01-02 09:53:39
175981,42,52,43,-0.84,-0.44,-0.24,-1,0.12,-0.02,B,2026-01-02 09:53:40
176481,44,65,30,0.69,1.11,-2.27,-0.99,0.14,-0.09,B,2026-01-02 09:53:40
176988,44,56,39,-1.63,2.56,-2.93,-0.96,0.14,-0.04,B,2026-01-02 09:53:41
177499,41,67,43,-1.15,-1.68,1.54,-0.98,0.15,-0.05,B,2026-01-02 09:53:41
178020,44,41,36,-1.89,2.81,-1.39,-0.98,0.11,-0.04,B,2026-01-02 09:53:42
178574,45,61,36,2.78,2.78,-2.85,-0.97,0.14,-0.05,B,2026-01-02 09:53:42
179027,49,63,41,-5.5,-4.37,0.46,-0.95,0.17,-0.07,B,2026-01-02 09:53:43
179580,42,57,43,-9.37,2.29,-8.23,-0.99,0.15,-0.11,B,2026-01-02 09:53:43
180079,43,50,42,-4.35,1.37,-2.31,-0.98,0.15,-0.04,B,2026-01-02 09:53:44
180580,43,57,43,-3.65,2.37,-3.92,-0.97,0.15,-0.07,B,2026-01-02 09:53:44
181087,42,61,46,-0.89,4.85,-1.48,-0.98,0.16,-0.09,B,2026-01-02 09:53:45
181587,44,69,43,-0.15,1.74,0.95,-0.96,0.17,-0.08,B,2026-01-02 09:53:45
182089,46,59,42,-0.08,4.53,1.66,-0.98,0.16,-0.07,B,2026-01-02 09:53:46
182618,42,44,36,-2.78,2.55,-0.76,-0.97,0.16,-0.09,B,2026-01-02 09:53:46
183130,44,67,43,-1.18,1.8,1.69,-0.96,0.16,-0.09,B,2026-01-02 09:53:47
183652,46,69,42,-2.17,1.8,3.77,-0.97,0.16,-0.09,B,2026-01-02 09:53:47
184206,45,61,43,-3.54,1.82,-1.69,-0.97,0.14,-0.09,B,2026-01-02 09:53:48
184668,43,57,29,-0.31,3.82,3.11,-0.97,0.15,-0.09,B,2026-01-02 09:53:48
185179,42,52,36,-2.58,3.98,-3.18,-0.96,0.17,-0.09,B,2026-01-02 09:53:49
185734,45,69,43,-2.06,5.71,0.08,-0.98,0.17,-0.09,B,2026-01-02 09:53:49
186291,45,63,39,-2,3.56,0.21,-0.95,0.16,-0.1,B,2026-01-02 09:53:50
186813,44,59,47,-1.62,2.96,0.31,-0.96,0.14,-0.11,B,2026-01-02 09:53:51
187329,43,50,36,-3.54,2.84,-0.9,-0.97,0.15,-0.09,B,2026-01-02 09:53:51
187843,41,63,43,-0.87,1.79,2.27,-0.96,0.16,-0.11,B,2026-01-02 09:53:52
188359,40,57,41,-0.12,3.86,0.38,-0.98,0.19,-0.07,B,2026-01-02 09:53:52
188867,43,56,36,-3.45,2.5,-0.35,-0.97,0.17,-0.13,B,2026-01-02 09:53:53
189378,44,56,39,0.38,0.82,2.75,-0.97,0.18,-0.12,B,2026-01-02 09:53:53
189879,41,59,43,-1.73,2.2,0.18,-0.98,0.19,-0.12,B,2026-01-02 09:53:54
190408,43,61,45,-0.35,1.74,-0.27,-0.96,0.18,-0.13,B,2026-01-02 09:53:54
190917,42,52,42,-0.03,2.38,-3.13,-0.98,0.17,-0.12,B,2026-01-02 09:53:55
191470,46,65,41,-5.63,1.77,-3.71,-0.97,0.16,-0.1,B,2026-01-02 09:53:55
191970,42,44,39,-1.18,3.27,1.51,-0.98,0.14,-0.09,B,2026-01-02 09:53:56
192472,41,52,37,-2.31,1.56,1.63,-0.97,0.16,-0.1,B,2026-01-02 09:53:56
192973,45,65,41,-2.27,-0.58,6.37,-0.98,0.17,-0.11,B,2026-01-02 09:53:57
193480,43,69,43,-0.49,1.16,3.21,-0.95,0.21,-0.12,B,2026-01-02 09:53:57
193988,43,48,46,-4.06,4.75,-0.64,-0.98,0.21,-0.11,B,2026-01-02 09:53:58
194541,43,63,42,-1.15,1.92,1.02,-0.94,0.21,-0.12,B,2026-01-02 09:53:58
195041,44,63,42,0.84,8.06,-0.35,-0.94,0.2,-0.13,B,2026-01-02 09:53:59
195542,42,44,41,-4.55,5.97,0.92,-0.97,0.17,-0.12,B,2026-01-02 09:53:59
196042,43,50,43,-3.04,0.81,1.3,-0.97,0.17,-0.12,B,2026-01-02 09:54:00
196597,43,50,47,-5.37,3.62,-4.87,-1.01,0.17,-0.04,B,2026-01-02 09:54:00
197056,43,50,43,-3.27,-0.21,-1.34,-0.98,0.16,-0.11,B,2026-01-02 09:54:01
197582,42,50,39,-0.89,6.31,1.45,-0.97,0.16,-0.1,B,2026-01-02 09:54:01
198089,44,69,43,-7.47,-0.81,-1.4,-1,0.13,-0.08,B,2026-01-02 09:54:02
198641,41,59,45,-2.85,-0.44,1.91,-0.97,0.18,-0.08,B,2026-01-02 09:54:02
199141,42,61,47,-1.4,5.3,0.78,-0.94,0.19,-0.09,B,2026-01-02 09:54:03
199642,40,56,43,-0.47,1.18,1.31,-0.96,0.2,-0.07,B,2026-01-02 09:54:03
200144,43,59,45,-0.56,6.93,2.14,-0.96,0.22,-0.09,B,2026-01-02 09:54:04
200644,44,59,43,-1.27,2.61,-1.25,-0.99,0.19,-0.07,B,2026-01-02 09:54:04
201158,40,50,41,-0.85,-0.58,-0.96,-0.98,0.18,-0.06,B,2026-01-02 09:54:05
201661,43,63,43,0.92,2.98,0.11,-0.97,0.16,-0.06,B,2026-01-02 09:54:05
202162,42,44,41,3.51,-1.25,1.98,-0.97,0.13,-0.07,B,2026-01-02 09:54:06
202688,42,59,51,-0.44,5.39,0.52,-0.96,0.15,-0.07,B,2026-01-02 09:54:06
203210,41,65,41,-2.26,2.6,2.66,-0.96,0.15,-0.07,B,2026-01-02 09:54:07
203766,41,52,42,-1.6,2.21,1.3,-0.97,0.15,-0.07,B,2026-01-02 09:54:08
204226,42,48,43,-1.69,3.85,0.81,-0.97,0.16,-0.08,B,2026-01-02 09:54:08
204739,40,59,42,-1.6,3.33,0.31,-0.96,0.16,-0.07,B,2026-01-02 09:54:09
205240,40,48,42,-2.47,3.51,0.6,-0.97,0.16,-0.08,B,2026-01-02 09:54:09
205793,41,54,42,-1.91,2.17,0.87,-0.97,0.14,-0.08,B,2026-01-02 09:54:10
206294,39,61,43,-0.69,3.33,2.06,-0.97,0.14,-0.08,B,2026-01-02 09:54:10
206796,40,44,42,-1.98,3.91,-0.15,-0.97,0.15,-0.07,B,2026-01-02 09:54:11
207350,43,56,38,-1.4,1.5,4.52,-1,0.14,-0.08,B,2026-01-02 09:54:11
207851,43,61,43,0.76,-3.1,-5.1,-0.94,0.12,-0.07,B,2026-01-02 09:54:12
208353,42,48,41,-1.02,4.08,-0.53,-0.98,0.14,-0.07,B,2026-01-02 09:54:12
208875,42,63,43,-1.83,2.64,1.76,-0.97,0.14,-0.08,B,2026-01-02 09:54:13
