timestamp,flex_thumb,flex_index,flex_middle,gyro_x,gyro_y,gyro_z,accel_x,accel_y,accel_z,label,datetime
18583,24,100,34,-1.27,1.48,1.77,-0.96,-0.15,0.03,OK,2026-01-02 10:17:04
19083,26,100,26,-1.79,2.41,0.47,-0.97,-0.14,0.04,OK,2026-01-02 10:17:04
19585,28,100,31,-2.2,3.15,1.37,-0.97,-0.13,0.05,OK,2026-01-02 10:17:05
20089,31,100,32,-2.63,3.16,-0.26,-0.97,-0.16,0.03,OK,2026-01-02 10:17:05
20600,36,100,33,25.8,6.56,2.17,-0.98,-0.21,-0.07,OK,2026-01-02 10:17:06
21152,30,100,40,-1.08,-6.31,11.97,-1.02,-0.03,0.1,OK,2026-01-02 10:17:06
21652,0,100,28,23.91,7.42,16.56,-1,-0.03,0.05,OK,2026-01-02 10:17:07
22157,0,100,49,-4.2,2.03,-0.52,-0.98,0,0.03,OK,2026-01-02 10:17:07
22657,0,100,31,-0.18,4.27,2.35,-0.96,-0.01,0.11,OK,2026-01-02 10:17:08
23160,0,100,26,-3.86,4.89,-1.08,-0.99,-0.03,0.03,OK,2026-01-02 10:17:08
23671,0,100,26,-3.85,1.19,-1.62,-0.98,-0.01,0.04,OK,2026-01-02 10:17:09
24181,0,100,38,-4.38,2.38,-6.75,-0.95,-0.06,0.02,OK,2026-01-02 10:17:09
24692,0,100,37,-5.19,1.8,-2.56,-0.96,-0.07,0.09,OK,2026-01-02 10:17:10
25248,31,100,36,1.85,5.92,-0.41,-0.97,-0.1,0.08,OK,2026-01-02 10:17:10
25702,25,100,33,-9.88,-12.26,-0.03,-0.97,-0.14,0.07,OK,2026-01-02 10:17:11
26202,1,100,43,-0.76,4.9,0.55,-0.96,-0.11,0.09,OK,2026-01-02 10:17:11
26742,0,100,44,-0.5,1.73,1.28,-0.96,-0.1,0.07,OK,2026-01-02 10:17:12
27254,0,100,34,-1.04,3.1,-1.21,-0.98,-0.12,0.08,OK,2026-01-02 10:17:12
27768,0,100,45,-0.78,2.92,0.38,-0.96,-0.14,0.08,OK,2026-01-02 10:17:13
28281,0,100,44,0.67,4.58,-1.91,-0.96,-0.14,0.07,OK,2026-01-02 10:17:14
28791,0,100,37,-6.4,8.08,0.78,-0.95,-0.21,0.13,OK,2026-01-02 10:17:14
29343,0,100,47,-13.68,8.84,3.83,-0.97,-0.17,0.07,OK,2026-01-02 10:17:15
29845,0,100,77,19.34,63.02,31.88,-0.97,-0.03,-0.25,OK,2026-01-02 10:17:15
30345,0,100,72,9.04,-35.51,3.62,-0.99,-0.06,-0.13,OK,2026-01-02 10:17:16
30881,0,100,75,9.59,-3.88,-1.37,-0.99,-0.01,0.1,OK,2026-01-02 10:17:16
31383,0,100,76,-4.58,-0.63,1.82,-0.96,-0.07,0.1,OK,2026-01-02 10:17:17
31901,0,100,79,-9.27,5.44,6,-1,-0.07,0.13,OK,2026-01-02 10:17:17
32402,0,100,71,-26.46,46.93,29.53,-0.93,-0.05,-0.04,OK,2026-01-02 10:17:18
32904,0,100,87,-15.76,-11.79,-10.18,-1.01,-0.03,0.02,OK,2026-01-02 10:17:18
33404,0,100,91,-13.98,1.48,-4.85,-1,-0.13,0.13,OK,2026-01-02 10:17:19
33911,0,100,75,-3.18,2.18,-0.03,-0.98,-0.1,0.1,OK,2026-01-02 10:17:19
34420,0,100,87,3.66,1.22,2.78,-0.97,-0.1,0.1,OK,2026-01-02 10:17:20
34931,0,100,93,-0.78,3.36,-0.26,-0.97,-0.09,0.11,OK,2026-01-02 10:17:20
35452,0,100,79,-2.49,3.66,-0.23,-0.96,-0.1,0.11,OK,2026-01-02 10:17:21
35953,0,100,87,-1.16,0,0.82,-0.95,-0.09,0.12,OK,2026-01-02 10:17:21
36472,0,100,91,3.56,-6.81,5.98,-0.97,-0.11,0.13,OK,2026-01-02 10:17:22
36973,0,100,91,1.37,4.17,-5.4,-0.96,-0.16,0.07,OK,2026-01-02 10:17:22
37475,39,100,83,2.05,-4.75,-1.22,-0.91,-0.17,0.08,OK,2026-01-02 10:17:23
38011,17,100,89,-7.71,7.15,0.67,-0.98,-0.16,0.1,OK,2026-01-02 10:17:23
38513,0,100,83,-6.46,1.71,3.22,-0.96,-0.17,0.06,OK,2026-01-02 10:17:24
39038,0,100,89,-0.93,3.92,-0.89,-0.95,-0.17,0.03,OK,2026-01-02 10:17:24
39550,0,100,86,2.72,0.2,0.43,-0.96,-0.17,0.04,OK,2026-01-02 10:17:25
40053,0,100,82,-2.47,2.81,0.4,-0.96,-0.17,0.06,OK,2026-01-02 10:17:25
40562,0,100,82,-2.75,2.11,-2.84,-0.95,-0.19,0.04,OK,2026-01-02 10:17:26
41117,0,100,82,8.66,-7.8,2.23,-0.94,-0.13,0.02,OK,2026-01-02 10:17:26
41583,0,100,86,-12.76,11.62,7.51,-0.94,-0.07,0.01,OK,2026-01-02 10:17:27
42083,0,100,74,-6.44,2.98,-4.7,-0.97,-0.08,0,OK,2026-01-02 10:17:27
42611,0,100,74,0.58,-8.66,-8.93,-0.95,-0.07,-0.04,OK,2026-01-02 10:17:28
43135,38,100,66,-3.04,4.73,1.37,-0.94,-0.1,-0.02,OK,2026-01-02 10:17:28
43641,27,82,72,-9.91,1.18,1.53,-0.98,-0.08,-0.01,OK,2026-01-02 10:17:29
44193,5,100,76,7.63,21.54,15.02,-1.03,-0.04,-0.13,OK,2026-01-02 10:17:29
44695,0,100,72,-7.18,-4.18,4.93,-0.97,0,-0.1,OK,2026-01-02 10:17:30
45249,0,100,61,2.96,0.89,-1.18,-0.98,0.04,-0.09,OK,2026-01-02 10:17:30
45708,0,100,63,-3.62,3.15,-1.73,-0.98,0.05,-0.06,OK,2026-01-02 10:17:31
46210,0,100,72,-4.05,1.88,-0.96,-0.98,0.03,-0.06,OK,2026-01-02 10:17:31
46764,0,100,60,-4.37,-0.18,-0.41,-0.98,0.04,-0.06,OK,2026-01-02 10:17:32
47318,0,100,61,-2.21,-3.85,-1.85,-0.98,0.02,-0.03,OK,2026-01-02 10:17:33
47766,0,100,63,0.93,-4.15,0.17,-0.98,0.05,0.11,OK,2026-01-02 10:17:33
48266,0,100,64,1.51,3.86,0.79,-0.93,0.04,0.32,OK,2026-01-02 10:17:33
48767,0,100,68,-14.27,-2.21,5.57,-0.75,0.08,0.37,OK,2026-01-02 10:17:34
49278,0,100,70,-1.24,-76.03,12.09,-0.3,0.24,0.83,OK,2026-01-02 10:17:34
49830,0,100,61,26.89,207.74,21.18,-1.08,-0.02,0.23,OK,2026-01-02 10:17:35
50332,0,100,63,-10.18,20.15,7.91,-0.85,0.12,-0.41,OK,2026-01-02 10:17:36
50833,0,100,28,-1.59,-13.53,-4.98,-0.98,0.01,-0.31,OK,2026-01-02 10:17:36
51334,0,100,60,-5.4,-0.09,-0.69,-0.95,0,-0.35,OK,2026-01-02 10:17:37
51834,0,100,54,-4.49,-0.92,-2.69,-0.94,0.02,-0.33,OK,2026-01-02 10:17:37
52390,0,100,57,-1.71,0.69,-0.12,-0.96,0.02,-0.31,OK,2026-01-02 10:17:38
52940,0,100,75,-1.5,1.47,-1.89,-0.95,0.01,-0.3,OK,2026-01-02 10:17:38
53467,0,100,59,-3.8,-9.97,6.34,-0.89,0.02,-0.35,OK,2026-01-02 10:17:39
54002,0,100,69,-9.53,-8.93,0.49,-0.96,0.02,-0.28,OK,2026-01-02 10:17:39
54550,0,100,70,-8.2,-3.98,-6.49,-0.99,0.02,-0.18,OK,2026-01-02 10:17:40
55104,0,100,70,-3.27,3.25,-0.93,-0.98,0.01,-0.14,OK,2026-01-02 10:17:40
55621,0,100,68,-2.18,0.82,1.1,-0.97,0,-0.14,OK,2026-01-02 10:17:41
56122,0,100,74,-2.96,0.78,-2.64,-0.97,-0.02,-0.14,OK,2026-01-02 10:17:41
56642,0,100,69,2.12,-0.79,-6.89,-0.97,-0.01,-0.11,OK,2026-01-02 10:17:42
57142,0,100,55,-2.43,2.37,1.3,-1,-0.04,-0.11,OK,2026-01-02 10:17:42
57642,0,100,61,2.6,1.79,4.89,-0.97,-0.02,-0.13,OK,2026-01-02 10:17:43
58194,0,100,57,-6.96,0.73,7.16,-0.96,0,-0.23,OK,2026-01-02 10:17:43
58749,0,100,63,-4.47,5.89,2.6,-0.99,-0.01,-0.12,OK,2026-01-02 10:17:44
59201,0,100,60,-5.68,-0.79,-10.08,-0.98,-0.03,-0.2,OK,2026-01-02 10:17:44
59711,0,100,61,-2.87,3.97,11.31,-0.94,-0.02,-0.2,OK,2026-01-02 10:17:45
60267,0,100,59,-0.05,-4.08,-4.63,-0.98,-0.04,-0.25,OK,2026-01-02 10:17:45
60719,0,100,59,-3.54,2.43,-1.05,-0.94,0.01,-0.17,OK,2026-01-02 10:17:46
61253,0,100,61,-1.15,-0.78,-5.11,-0.96,-0.01,-0.11,OK,2026-01-02 10:17:46
61762,0,100,64,-2.7,3.56,8.73,-0.94,-0.04,-0.2,OK,2026-01-02 10:17:47
62313,0,100,57,0.6,11.48,0.03,-0.99,-0.01,-0.14,OK,2026-01-02 10:17:47
62868,0,100,56,-0.79,-3.36,9.11,-0.96,-0.07,-0.19,OK,2026-01-02 10:17:48
63314,0,100,57,8.24,14.63,-0.79,-0.97,-0.06,-0.15,OK,2026-01-02 10:17:49
63814,0,100,56,7.86,4.41,-4.82,-1.01,0.02,-0.2,OK,2026-01-02 10:17:49
64314,0,100,55,-3.3,6.79,-11.74,-0.94,0.01,-0.14,OK,2026-01-02 10:17:50
64832,0,100,56,1.73,4.66,-1.79,-0.94,-0.01,-0.16,OK,2026-01-02 10:17:50
65351,0,100,49,4.31,1.88,0.14,-0.99,-0.05,-0.19,OK,2026-01-02 10:17:51
65851,0,100,52,-4.9,1.73,3.04,-1.03,-0.08,-0.18,OK,2026-01-02 10:17:51
66372,0,100,57,-1.51,-4.92,10.12,-0.91,0,-0.17,OK,2026-01-02 10:17:52
66872,0,100,54,-4.99,9.04,8.38,-0.96,-0.1,-0.13,OK,2026-01-02 10:17:52
67385,0,100,60,15.62,5.24,-14.23,-0.92,-0.1,-0.12,OK,2026-01-02 10:17:53
67939,0,100,60,1.05,-5.11,9.31,-0.95,-0.14,-0.06,OK,2026-01-02 10:17:53
68421,0,100,57,-2.6,1.86,-5.11,-0.97,-0.1,-0.06,OK,2026-01-02 10:17:54
68973,0,100,51,-3.82,-4.78,-21.18,-1.02,-0.08,-0.06,OK,2026-01-02 10:17:54
69475,0,100,47,-0.99,5.05,0.89,-0.93,-0.22,-0.12,OK,2026-01-02 10:17:55
70030,0,100,54,-4.95,-1.42,-0.35,-0.95,-0.22,-0.14,OK,2026-01-02 10:17:55
70476,0,100,57,-2.2,3.91,3.01,-0.95,-0.21,-0.13,OK,2026-01-02 10:17:56
70982,0,100,51,-1.22,1.42,3.19,-0.93,-0.2,-0.16,OK,2026-01-02 10:17:56
71484,0,100,57,0.5,0.09,-3.51,-0.95,-0.23,-0.14,OK,2026-01-02 10:17:57
72002,0,100,54,1.98,10.23,8.29,-0.95,-0.21,-0.14,OK,2026-01-02 10:17:57
72511,0,100,56,-2.98,-1.18,-1.56,-0.95,-0.18,-0.18,OK,2026-01-02 10:17:58
73032,0,100,54,-2,5.45,-0.46,-0.95,-0.17,-0.2,OK,2026-01-02 10:17:58
73535,0,100,57,1.95,5.27,3.66,-0.96,-0.18,-0.18,OK,2026-01-02 10:17:59
74091,0,100,57,-3.1,1.71,0.38,-0.94,-0.2,-0.18,OK,2026-01-02 10:17:59
74643,0,100,57,-3.48,2.95,-1.97,-0.97,-0.2,-0.16,OK,2026-01-02 10:18:00
75179,0,100,59,-1.01,-0.06,4.27,-0.94,-0.2,-0.17,OK,2026-01-02 10:18:00
75684,0,100,48,6.61,20.38,4.67,-0.87,-0.19,-0.24,OK,2026-01-02 10:18:01
76203,0,100,57,1.02,-1.11,1.1,-0.96,-0.11,-0.2,OK,2026-01-02 10:18:01
76713,0,100,51,1.28,0.08,-1.05,-0.95,-0.12,-0.2,OK,2026-01-02 10:18:02
77244,0,100,61,1.33,0.9,2.38,-0.95,-0.15,-0.19,OK,2026-01-02 10:18:02
77744,0,100,57,-2.34,4.31,2.14,-0.96,-0.15,-0.19,OK,2026-01-02 10:18:03
78300,0,100,57,-2.23,-2.76,-0.35,-0.96,-0.13,-0.18,OK,2026-01-02 10:18:04
78760,0,100,52,-2.15,3.89,2.82,-0.95,-0.14,-0.19,OK,2026-01-02 10:18:04
79272,0,100,54,-0.75,2.69,0.12,-0.96,-0.1,-0.21,OK,2026-01-02 10:18:05
79791,0,100,57,-0.27,1.59,0.82,-0.99,-0.1,-0.13,OK,2026-01-02 10:18:05
80301,0,100,49,-0.64,1.3,3.37,-1,-0.13,-0.16,OK,2026-01-02 10:18:05
80854,0,100,53,-1.45,1.02,-4.99,-0.95,-0.11,-0.19,OK,2026-01-02 10:18:06
81354,0,100,57,-2.82,2.78,0.14,-0.96,-0.11,-0.2,OK,2026-01-02 10:18:07
81856,0,100,54,-0.27,2.87,2.99,-0.98,-0.11,-0.17,OK,2026-01-02 10:18:07
82357,0,100,66,-2.05,3.01,-0.05,-0.98,-0.12,-0.19,OK,2026-01-02 10:18:08
82865,0,100,56,-2.58,4.5,1.79,-0.97,-0.1,-0.2,OK,2026-01-02 10:18:08
83365,0,100,57,-0.89,0.79,-2.34,-0.97,-0.11,-0.18,OK,2026-01-02 10:18:09
83883,0,100,52,-0.61,-3.44,3.91,-0.98,-0.13,-0.15,OK,2026-01-02 10:18:09
84395,0,100,66,-2.89,3.31,-1.42,-0.98,-0.09,-0.14,OK,2026-01-02 10:18:10
84915,0,100,56,0.58,3.6,-5.82,-0.99,-0.12,-0.14,OK,2026-01-02 10:18:10
85421,0,100,52,-7.15,4.12,-1.73,-0.95,-0.13,-0.12,OK,2026-01-02 10:18:11
85925,0,100,45,-2.99,5.13,-0.56,-0.96,-0.15,-0.13,OK,2026-01-02 10:18:11
86444,0,100,57,-3.44,0.35,0.99,-0.97,-0.16,-0.14,OK,2026-01-02 10:18:12
86945,0,100,56,-1.82,3.34,-0.26,-0.97,-0.15,-0.15,OK,2026-01-02 10:18:12
87444,0,100,57,-3.11,3.51,0.81,-0.96,-0.14,-0.16,OK,2026-01-02 10:18:13
87979,0,100,57,-3.5,2.15,-0.11,-0.96,-0.14,-0.17,OK,2026-01-02 10:18:13
88479,0,100,57,-5.37,1.05,0.67,-0.96,-0.13,-0.19,OK,2026-01-02 10:18:14
89002,0,100,64,-2.5,3.25,-0.79,-0.97,-0.13,-0.17,OK,2026-01-02 10:18:14
89555,0,100,68,-1.44,-0.2,-0.21,-0.95,-0.16,-0.15,OK,2026-01-02 10:18:15
90055,0,100,40,-1.36,2.05,0.89,-0.97,-0.14,-0.15,OK,2026-01-02 10:18:15
90611,0,100,57,-1.07,1.6,-0.11,-0.96,-0.13,-0.17,OK,2026-01-02 10:18:16
91111,0,100,56,-4.26,3.65,-0.11,-0.97,-0.15,-0.15,OK,2026-01-02 10:18:16
91665,0,100,55,-3.36,5.04,4.12,-0.97,-0.13,-0.14,OK,2026-01-02 10:18:17
92219,0,100,57,-0.17,2.32,2.23,-0.96,-0.15,-0.17,OK,2026-01-02 10:18:18
92719,0,100,38,-26.43,-3.77,-38.29,-0.92,-0.21,-0.05,OK,2026-01-02 10:18:18
93219,0,100,47,76.55,-6.9,56.21,-0.92,-0.47,-0.05,OK,2026-01-02 10:18:18
93721,0,100,54,-6.67,16.9,6.09,-0.95,-0.23,-0.23,OK,2026-01-02 10:18:19
94221,0,100,52,3.36,7.63,-5.39,-0.95,-0.26,-0.26,OK,2026-01-02 10:18:19
94765,0,100,57,28.05,23.4,-9.51,-0.89,-0.08,-0.3,OK,2026-01-02 10:18:20
95321,0,100,57,4.9,4.72,57.24,-1.15,-0.09,-0.38,OK,2026-01-02 10:18:21
95769,0,100,63,-2.11,29.54,-4.12,-0.89,0.06,-0.34,OK,2026-01-02 10:18:21
96270,0,100,60,-3.25,-2.58,6.61,-0.95,0.07,-0.39,OK,2026-01-02 10:18:22
96784,0,100,60,3.83,-5.34,6.67,-0.93,0.09,-0.42,OK,2026-01-02 10:18:22
97285,0,100,64,-11.36,-46.81,-9.5,-0.88,0.18,-0.31,OK,2026-01-02 10:18:23
97812,0,100,56,-5.01,14.82,12.99,-0.81,0.1,-0.38,OK,2026-01-02 10:18:23
98364,0,100,57,-3.04,-0.52,2.58,-0.99,0,-0.02,OK,2026-01-02 10:18:24
98865,0,100,52,-44.35,-1.91,0.89,-0.99,-0.3,-0.24,OK,2026-01-02 10:18:24
99366,0,100,57,-3.57,2.41,11.57,-0.97,0.12,0.06,OK,2026-01-02 10:18:25
99866,0,100,61,65.45,6.82,-0.24,-0.99,0.18,-0.03,OK,2026-01-02 10:18:25
100373,0,100,59,-10.82,9.68,0.08,-1.02,0.12,-0.01,OK,2026-01-02 10:18:26
100882,0,100,60,-14.69,5.57,3.65,-1.01,0.06,-0.03,OK,2026-01-02 10:18:26
101400,0,100,54,2.72,6.38,-9.65,-1.04,0.14,0.01,OK,2026-01-02 10:18:27
101900,0,100,38,11.24,32.7,-2.49,-1.04,0.11,-0.27,OK,2026-01-02 10:18:27
102423,0,100,45,-2.52,2.08,4.24,-1.06,0.05,-0.24,OK,2026-01-02 10:18:28
102932,0,100,46,-5.98,-8.76,-6.08,-1.02,0.07,-0.18,OK,2026-01-02 10:18:28
103442,0,100,41,-4.08,10.41,1.59,-0.99,0.02,-0.08,OK,2026-01-02 10:18:29
103993,0,100,38,-29.89,16.41,-4.52,-0.97,0.16,0.02,OK,2026-01-02 10:18:29
104495,0,100,38,2.2,4.38,4.21,-0.99,0.14,-0.05,OK,2026-01-02 10:18:30
104996,0,100,47,27.82,34.55,0.29,-1.04,-0.1,0.04,OK,2026-01-02 10:18:30
105498,0,100,40,-33.07,-8.89,5.59,-0.8,0.01,-0.13,OK,2026-01-02 10:18:31
106000,0,100,39,32,-4.5,-11.08,-1.08,0.06,0.18,OK,2026-01-02 10:18:31
106504,0,100,37,-11.04,10.79,5.37,-0.79,0.08,-0.11,OK,2026-01-02 10:18:32
107023,0,100,40,-42.92,3.98,-0.87,-1,0.1,-0.03,OK,2026-01-02 10:18:32
107574,0,100,32,2.96,2.56,-3.94,-0.94,-0.07,-0.26,OK,2026-01-02 10:18:33
108076,0,100,22,0.11,-22.85,-5.85,-1.16,0.01,-0.09,OK,2026-01-02 10:18:33
108578,0,100,24,-2.63,11.68,0.49,-0.91,-0.01,-0.13,OK,2026-01-02 10:18:34
109078,0,100,32,-4.02,-0.72,-1.39,-0.97,0.02,-0.17,OK,2026-01-02 10:18:34
109633,0,100,39,-2.31,2.73,-0.2,-0.98,-0.01,-0.14,OK,2026-01-02 10:18:35
110133,0,100,23,-1.68,0.69,1.31,-0.98,0,-0.16,OK,2026-01-02 10:18:35
110634,0,100,33,-0.81,4.34,2.95,-0.98,0,-0.16,OK,2026-01-02 10:18:36
111135,0,100,29,-2,3.11,-0.26,-0.99,-0.01,-0.15,OK,2026-01-02 10:18:36
111690,0,100,29,-0.78,3.89,1.82,-0.98,-0.01,-0.14,OK,2026-01-02 10:18:37
112154,0,100,33,-1.47,0.58,-0.52,-0.98,-0.01,-0.15,OK,2026-01-02 10:18:37
112701,0,100,36,-0.87,3.11,-0.79,-0.99,-0.01,-0.14,OK,2026-01-02 10:18:38
113202,0,100,26,-3.02,5.34,-2.12,-1,-0.01,-0.16,OK,2026-01-02 10:18:38
113703,0,100,24,-6.73,7.97,-3.95,-0.96,0.02,-0.15,OK,2026-01-02 10:18:39
114256,0,100,39,-4.69,2.32,4.56,-0.98,0.02,-0.14,OK,2026-01-02 10:18:40
114812,0,100,32,-1.34,2.87,0.69,-0.99,-0.01,-0.17,OK,2026-01-02 10:18:40
115312,0,100,37,-2.2,1.11,-0.18,-0.98,-0.01,-0.19,OK,2026-01-02 10:18:41
115829,0,100,37,-2.93,1.37,-1.94,-0.97,-0.01,-0.19,OK,2026-01-02 10:18:41
116343,0,100,38,-2.5,0.61,0.47,-1,0,-0.17,OK,2026-01-02 10:18:42
116852,0,100,41,-2.29,2.08,0.72,-0.97,0,-0.18,OK,2026-01-02 10:18:42
117403,0,100,40,-6.9,5.34,0.63,-0.97,0.03,-0.16,OK,2026-01-02 10:18:43
117903,0,100,29,-2.53,3.94,-2.84,-0.98,-0.01,-0.18,OK,2026-01-02 10:18:43
118405,0,100,36,-1.54,2.17,-0.23,-0.97,-0.01,-0.18,OK,2026-01-02 10:18:44
118905,0,100,37,-1.07,2.66,0.81,-0.98,-0.01,-0.18,OK,2026-01-02 10:18:44
119407,0,100,39,1.07,7.1,5.89,-0.96,0.01,-0.24,OK,2026-01-02 10:18:45
119964,0,100,31,-3.48,2.6,-0.44,-0.97,0.02,-0.21,OK,2026-01-02 10:18:45
120464,0,100,41,-2.7,1.08,-0.78,-0.97,0.03,-0.2,OK,2026-01-02 10:18:46
120964,0,100,29,-0.46,1.37,-3.51,-0.96,0.04,-0.2,OK,2026-01-02 10:18:46
121465,0,100,29,-2.75,-0.06,1.39,-0.99,0.01,-0.18,OK,2026-01-02 10:18:47
122017,0,100,33,-3.31,2.4,-1.01,-0.97,0.02,-0.18,OK,2026-01-02 10:18:47
122519,0,100,38,-2.76,1.83,-0.78,-0.98,0.02,-0.16,OK,2026-01-02 10:18:48
