timestamp,flex_thumb,flex_index,flex_middle,gyro_x,gyro_y,gyro_z,accel_x,accel_y,accel_z,label,datetime
95086,70,100,87,0,0,0,0,0,0,A,2026-01-07 14:07:48
95587,75,100,89,0,0,0,0,0,0,A,2026-01-07 14:07:48
96117,69,100,87,0,0,0,0,0,0,A,2026-01-07 14:07:49
96635,66,100,90,0,0,0,0,0,0,A,2026-01-07 14:07:49
97136,66,100,87,0,0,0,0,0,0,A,2026-01-07 14:07:50
97657,67,100,87,0,0,0,0,0,0,A,2026-01-07 14:07:50
98159,69,100,89,0,0,0,0,0,0,A,2026-01-07 14:07:51
98668,70,100,87,0,0,0,0,0,0,A,2026-01-07 14:07:51
99182,72,100,85,0,0,0,0,0,0,A,2026-01-07 14:07:52
99688,72,100,87,0,0,0,0,0,0,A,2026-01-07 14:07:53
100224,71,100,89,0,0,0,0,0,0,A,2026-01-07 14:07:53
100727,72,100,87,0,0,0,0,0,0,A,2026-01-07 14:07:54
101240,71,100,86,0,0,0,0,0,0,A,2026-01-07 14:07:54
101746,73,100,87,0,0,0,0,0,0,A,2026-01-07 14:07:55
102256,68,100,87,0,0,0,0,0,0,A,2026-01-07 14:07:55
102779,68,100,89,0,0,0,0,0,0,A,2026-01-07 14:07:56
103285,73,100,85,0,0,0,0,0,0,A,2026-01-07 14:07:56
103797,66,100,87,0,0,0,0,0,0,A,2026-01-07 14:07:57
104303,73,100,88,0,0,0,0,0,0,A,2026-01-07 14:07:57
104805,72,100,87,0,0,0,0,0,0,A,2026-01-07 14:07:58
105327,72,100,87,0,0,0,0,0,0,A,2026-01-07 14:07:58
105828,72,100,88,0,0,0,0,0,0,A,2026-01-07 14:07:59
106328,72,100,88,0,0,0,0,0,0,A,2026-01-07 14:07:59
106865,72,100,87,0,0,0,0,0,0,A,2026-01-07 14:08:00
107376,69,100,87,0,0,0,0,0,0,A,2026-01-07 14:08:00
107876,70,100,87,0,0,0,0,0,0,A,2026-01-07 14:08:01
108420,70,100,87,0,0,0,0,0,0,A,2026-01-07 14:08:01
108920,70,100,87,0,0,0,0,0,0,A,2026-01-07 14:08:02
109420,71,100,87,0,0,0,0,0,0,A,2026-01-07 14:08:02
109975,72,100,87,0,0,0,0,0,0,A,2026-01-07 14:08:03
110426,72,100,85,0,0,0,0,0,0,A,2026-01-07 14:08:03
110957,71,100,87,0,0,0,0,0,0,A,2026-01-07 14:08:04
111456,71,100,87,0,0,0,0,0,0,A,2026-01-07 14:08:04
111986,72,100,87,0,0,0,0,0,0,A,2026-01-07 14:08:05
112538,70,100,85,0,0,0,0,0,0,A,2026-01-07 14:08:05
113038,72,100,88,0,0,0,0,0,0,A,2026-01-07 14:08:06
113540,71,100,84,0,0,0,0,0,0,A,2026-01-07 14:08:06
114045,70,100,86,0,0,0,0,0,0,A,2026-01-07 14:08:07
114546,72,100,85,0,0,0,0,0,0,A,2026-01-07 14:08:07
115057,70,100,87,0,0,0,0,0,0,A,2026-01-07 14:08:08
115609,72,100,85,0,0,0,0,0,0,A,2026-01-07 14:08:08
116109,73,100,86,0,0,0,0,0,0,A,2026-01-07 14:08:09
116610,71,100,88,0,0,0,0,0,0,A,2026-01-07 14:08:09
117112,72,100,86,0,0,0,0,0,0,A,2026-01-07 14:08:10
117612,72,100,87,0,0,0,0,0,0,A,2026-01-07 14:08:10
118168,72,100,85,0,0,0,0,0,0,A,2026-01-07 14:08:11
118669,72,100,86,0,0,0,0,0,0,A,2026-01-07 14:08:11
119169,71,100,85,0,0,0,0,0,0,A,2026-01-07 14:08:12
119671,71,100,85,0,0,0,0,0,0,A,2026-01-07 14:08:12
120176,70,100,84,0,0,0,0,0,0,A,2026-01-07 14:08:13
120678,62,100,84,0,0,0,0,0,0,A,2026-01-07 14:08:13
121197,66,100,86,0,0,0,0,0,0,A,2026-01-07 14:08:14
121717,69,100,87,0,0,0,0,0,0,A,2026-01-07 14:08:14
122227,72,100,87,0,0,0,0,0,0,A,2026-01-07 14:08:15
122738,72,100,86,0,0,0,0,0,0,A,2026-01-07 14:08:16
123258,71,100,86,0,0,0,0,0,0,A,2026-01-07 14:08:16
123759,70,100,86,0,0,0,0,0,0,A,2026-01-07 14:08:17
124276,71,100,85,0,0,0,0,0,0,A,2026-01-07 14:08:17
124787,71,100,86,0,0,0,0,0,0,A,2026-01-07 14:08:18
125296,72,100,87,0,0,0,0,0,0,A,2026-01-07 14:08:18
125806,72,100,87,0,0,0,0,0,0,A,2026-01-07 14:08:19
126328,72,100,86,0,0,0,0,0,0,A,2026-01-07 14:08:19
126837,72,100,84,0,0,0,0,0,0,A,2026-01-07 14:08:20
127367,72,100,87,0,0,0,0,0,0,A,2026-01-07 14:08:20
127886,71,100,87,0,0,0,0,0,0,A,2026-01-07 14:08:21
128388,71,100,86,0,0,0,0,0,0,A,2026-01-07 14:08:21
128888,71,100,87,0,0,0,0,0,0,A,2026-01-07 14:08:22
129441,70,100,84,0,0,0,0,0,0,A,2026-01-07 14:08:22
129941,70,100,87,0,0,0,0,0,0,A,2026-01-07 14:08:23
130443,69,100,86,0,0,0,0,0,0,A,2026-01-07 14:08:23
130944,70,100,84,0,0,0,0,0,0,A,2026-01-07 14:08:24
131445,70,100,86,0,0,0,0,0,0,A,2026-01-07 14:08:24
131957,69,100,84,0,0,0,0,0,0,A,2026-01-07 14:08:25
132470,70,100,85,0,0,0,0,0,0,A,2026-01-07 14:08:25
133025,71,100,87,0,0,0,0,0,0,A,2026-01-07 14:08:26
133514,69,100,85,0,0,0,0,0,0,A,2026-01-07 14:08:26
134016,68,100,87,0,0,0,0,0,0,A,2026-01-07 14:08:27
134518,69,100,86,0,0,0,0,0,0,A,2026-01-07 14:08:27
135022,72,100,88,0,0,0,0,0,0,A,2026-01-07 14:08:28
135522,70,100,88,0,0,0,0,0,0,A,2026-01-07 14:08:28
136078,70,100,85,0,0,0,0,0,0,A,2026-01-07 14:08:29
136578,69,100,84,0,0,0,0,0,0,A,2026-01-07 14:08:29
137078,69,100,84,0,0,0,0,0,0,A,2026-01-07 14:08:30
137578,67,100,80,0,0,0,0,0,0,A,2026-01-07 14:08:30
138079,65,100,81,0,0,0,0,0,0,A,2026-01-07 14:08:31
138629,66,100,84,0,0,0,0,0,0,A,2026-01-07 14:08:31
139130,65,100,84,0,0,0,0,0,0,A,2026-01-07 14:08:32
139637,57,100,80,0,0,0,0,0,0,A,2026-01-07 14:08:32
140147,68,100,81,0,0,0,0,0,0,A,2026-01-07 14:08:33
140656,54,100,81,0,0,0,0,0,0,A,2026-01-07 14:08:33
141166,71,100,83,0,0,0,0,0,0,A,2026-01-07 14:08:34
141668,71,100,83,0,0,0,0,0,0,A,2026-01-07 14:08:34
142220,73,100,87,0,0,0,0,0,0,A,2026-01-07 14:08:35
142771,58,100,88,0,0,0,0,0,0,A,2026-01-07 14:08:36
143317,58,100,86,0,0,0,0,0,0,A,2026-01-07 14:08:36
143847,72,100,87,0,0,0,0,0,0,A,2026-01-07 14:08:37
144400,68,100,87,0,0,0,0,0,0,A,2026-01-07 14:08:37
144902,66,100,87,0,0,0,0,0,0,A,2026-01-07 14:08:38
145402,68,100,87,0,0,0,0,0,0,A,2026-01-07 14:08:38
145904,69,100,87,0,0,0,0,0,0,A,2026-01-07 14:08:39
146406,73,100,87,0,0,0,0,0,0,A,2026-01-07 14:08:39
146931,66,100,87,0,0,0,0,0,0,A,2026-01-07 14:08:40
147432,69,100,86,0,0,0,0,0,0,A,2026-01-07 14:08:40
147934,63,100,87,0,0,0,0,0,0,A,2026-01-07 14:08:41
148450,64,100,86,0,0,0,0,0,0,A,2026-01-07 14:08:41
148951,64,100,87,0,0,0,0,0,0,A,2026-01-07 14:08:42
149467,72,100,88,0,0,0,0,0,0,A,2026-01-07 14:08:42
149969,71,100,77,0,0,0,0,0,0,A,2026-01-07 14:08:43
150488,70,100,74,0,0,0,0,0,0,A,2026-01-07 14:08:43
150989,73,100,74,0,0,0,0,0,0,A,2026-01-07 14:08:44
151517,56,100,73,0,0,0,0,0,0,A,2026-01-07 14:08:44
152019,61,100,70,0,0,0,0,0,0,A,2026-01-07 14:08:45
152520,61,100,71,0,0,0,0,0,0,A,2026-01-07 14:08:45
153044,74,100,73,0,0,0,0,0,0,A,2026-01-07 14:08:46
153550,61,100,84,0,0,0,0,0,0,A,2026-01-07 14:08:46
154082,73,100,89,0,0,0,0,0,0,A,2026-01-07 14:08:47
154587,74,100,96,0,0,0,0,0,0,A,2026-01-07 14:08:47
155098,58,100,98,0,0,0,0,0,0,A,2026-01-07 14:08:48
155607,74,100,99,0,0,0,0,0,0,A,2026-01-07 14:08:48
156112,56,100,99,0,0,0,0,0,0,A,2026-01-07 14:08:49
156626,78,100,100,0,0,0,0,0,0,A,2026-01-07 14:08:49
157156,56,100,100,0,0,0,0,0,0,A,2026-01-07 14:08:50
157656,67,100,100,0,0,0,0,0,0,A,2026-01-07 14:08:50
158158,58,100,100,0,0,0,0,0,0,A,2026-01-07 14:08:51
158680,62,100,100,0,0,0,0,0,0,A,2026-01-07 14:08:51
159187,78,100,100,0,0,0,0,0,0,A,2026-01-07 14:08:52
159707,77,100,100,0,0,0,0,0,0,A,2026-01-07 14:08:52
160207,67,100,100,0,0,0,0,0,0,A,2026-01-07 14:08:53
160727,78,100,100,0,0,0,0,0,0,A,2026-01-07 14:08:53
161239,55,100,100,0,0,0,0,0,0,A,2026-01-07 14:08:54
161747,78,100,100,0,0,0,0,0,0,A,2026-01-07 14:08:55
162272,64,100,100,0,0,0,0,0,0,A,2026-01-07 14:08:55
162777,54,100,100,0,0,0,0,0,0,A,2026-01-07 14:08:55
163278,66,100,100,0,0,0,0,0,0,A,2026-01-07 14:08:56
163797,52,100,100,0,0,0,0,0,0,A,2026-01-07 14:08:57
164307,77,100,100,0,0,0,0,0,0,A,2026-01-07 14:08:57
164829,76,100,100,0,0,0,0,0,0,A,2026-01-07 14:08:58
165329,70,100,100,0,0,0,0,0,0,A,2026-01-07 14:08:58
165847,74,100,100,0,0,0,0,0,0,A,2026-01-07 14:08:59
166379,58,100,100,0,0,0,0,0,0,A,2026-01-07 14:08:59
166895,61,100,100,0,0,0,0,0,0,A,2026-01-07 14:09:00
167395,69,100,100,0,0,0,0,0,0,A,2026-01-07 14:09:00
167906,69,100,100,0,0,0,0,0,0,A,2026-01-07 14:09:01
168409,71,100,100,0,0,0,0,0,0,A,2026-01-07 14:09:01
168909,72,100,100,0,0,0,0,0,0,A,2026-01-07 14:09:02
169410,70,100,100,0,0,0,0,0,0,A,2026-01-07 14:09:02
169966,71,100,100,0,0,0,0,0,0,A,2026-01-07 14:09:03
170458,68,100,100,0,0,0,0,0,0,A,2026-01-07 14:09:03
170975,69,100,100,0,0,0,0,0,0,A,2026-01-07 14:09:04
171479,70,100,100,0,0,0,0,0,0,A,2026-01-07 14:09:04
171979,71,100,100,0,0,0,0,0,0,A,2026-01-07 14:09:05
172512,72,100,100,0,0,0,0,0,0,A,2026-01-07 14:09:05
173014,69,100,100,0,0,0,0,0,0,A,2026-01-07 14:09:06
173568,73,100,100,0,0,0,0,0,0,A,2026-01-07 14:09:06
174121,58,100,100,0,0,0,0,0,0,A,2026-01-07 14:09:07
174668,78,100,100,0,0,0,0,0,0,A,2026-01-07 14:09:07
175187,74,100,100,0,0,0,0,0,0,A,2026-01-07 14:09:08
175688,64,100,100,0,0,0,0,0,0,A,2026-01-07 14:09:08
176199,57,100,100,0,0,0,0,0,0,A,2026-01-07 14:09:09
176723,63,100,100,0,0,0,0,0,0,A,2026-01-07 14:09:09
177223,70,100,100,0,0,0,0,0,0,A,2026-01-07 14:09:10
177731,70,100,100,0,0,0,0,0,0,A,2026-01-07 14:09:10
178232,71,100,100,0,0,0,0,0,0,A,2026-01-07 14:09:11
178745,70,100,100,0,0,0,0,0,0,A,2026-01-07 14:09:12
179261,70,100,100,0,0,0,0,0,0,A,2026-01-07 14:09:12
179779,69,100,100,0,0,0,0,0,0,A,2026-01-07 14:09:13
180284,70,100,100,0,0,0,0,0,0,A,2026-01-07 14:09:13
180790,71,100,100,0,0,0,0,0,0,A,2026-01-07 14:09:13
181331,71,100,100,0,0,0,0,0,0,A,2026-01-07 14:09:14
181887,70,100,100,0,0,0,0,0,0,A,2026-01-07 14:09:15
182361,69,100,100,0,0,0,0,0,0,A,2026-01-07 14:09:15
182861,70,100,100,0,0,0,0,0,0,A,2026-01-07 14:09:16
183362,69,100,100,0,0,0,0,0,0,A,2026-01-07 14:09:16
183872,70,100,100,0,0,0,0,0,0,A,2026-01-07 14:09:17
184422,69,100,100,0,0,0,0,0,0,A,2026-01-07 14:09:17
184924,70,100,100,0,0,0,0,0,0,A,2026-01-07 14:09:18
185479,69,100,100,0,0,0,0,0,0,A,2026-01-07 14:09:18
185979,69,100,100,0,0,0,0,0,0,A,2026-01-07 14:09:19
186481,70,100,100,0,0,0,0,0,0,A,2026-01-07 14:09:19
187037,69,100,100,0,0,0,0,0,0,A,2026-01-07 14:09:20
187519,70,100,100,0,0,0,0,0,0,A,2026-01-07 14:09:20
188020,70,100,100,0,0,0,0,0,0,A,2026-01-07 14:09:21
188522,70,100,100,0,0,0,0,0,0,A,2026-01-07 14:09:21
189024,70,100,100,0,0,0,0,0,0,A,2026-01-07 14:09:22
189524,69,100,100,0,0,0,0,0,0,A,2026-01-07 14:09:22
190025,69,100,100,0,0,0,0,0,0,A,2026-01-07 14:09:23
190529,69,100,100,0,0,0,0,0,0,A,2026-01-07 14:09:23
191082,69,100,100,0,0,0,0,0,0,A,2026-01-07 14:09:24
191583,69,100,100,0,0,0,0,0,0,A,2026-01-07 14:09:24
192084,69,100,100,0,0,0,0,0,0,A,2026-01-07 14:09:25
192586,69,100,100,0,0,0,0,0,0,A,2026-01-07 14:09:25
193098,69,100,100,0,0,0,0,0,0,A,2026-01-07 14:09:26
193607,69,100,100,0,0,0,0,0,0,A,2026-01-07 14:09:26
194108,69,100,100,0,0,0,0,0,0,A,2026-01-07 14:09:27
194622,69,100,100,0,0,0,0,0,0,A,2026-01-07 14:09:27
195124,69,100,100,0,0,0,0,0,0,A,2026-01-07 14:09:28
195649,69,100,100,0,0,0,0,0,0,A,2026-01-07 14:09:28
196149,68,100,100,0,0,0,0,0,0,A,2026-01-07 14:09:29
196661,68,100,100,0,0,0,0,0,0,A,2026-01-07 14:09:29
197162,69,100,100,0,0,0,0,0,0,A,2026-01-07 14:09:30
197698,69,100,100,0,0,0,0,0,0,A,2026-01-07 14:09:30
198199,69,100,100,0,0,0,0,0,0,A,2026-01-07 14:09:31
198718,69,100,100,0,0,0,0,0,0,A,2026-01-07 14:09:31
199237,69,100,100,0,0,0,0,0,0,A,2026-01-07 14:09:32
199747,69,100,100,0,0,0,0,0,0,A,2026-01-07 14:09:33
200257,69,100,100,0,0,0,0,0,0,A,2026-01-07 14:09:33
200759,69,100,100,0,0,0,0,0,0,A,2026-01-07 14:09:34
201280,69,100,100,0,0,0,0,0,0,A,2026-01-07 14:09:34
201788,69,100,100,0,0,0,0,0,0,A,2026-01-07 14:09:35
202344,69,100,100,0,0,0,0,0,0,A,2026-01-07 14:09:35
202818,70,100,100,0,0,0,0,0,0,A,2026-01-07 14:09:36
203327,69,100,100,0,0,0,0,0,0,A,2026-01-07 14:09:36
203836,69,100,100,0,0,0,0,0,0,A,2026-01-07 14:09:37
204364,69,100,100,0,0,0,0,0,0,A,2026-01-07 14:09:37
204919,70,100,100,0,0,0,0,0,0,A,2026-01-07 14:09:38
205469,70,100,100,0,0,0,0,0,0,A,2026-01-07 14:09:38
205969,70,100,100,0,0,0,0,0,0,A,2026-01-07 14:09:39
206469,70,100,100,0,0,0,0,0,0,A,2026-01-07 14:09:39
207010,70,100,100,0,0,0,0,0,0,A,2026-01-07 14:09:40
207528,69,100,100,0,0,0,0,0,0,A,2026-01-07 14:09:40
208031,69,100,100,0,0,0,0,0,0,A,2026-01-07 14:09:41
208550,69,100,100,0,0,0,0,0,0,A,2026-01-07 14:09:41
209065,70,100,100,0,0,0,0,0,0,A,2026-01-07 14:09:42
209569,69,100,100,0,0,0,0,0,0,A,2026-01-07 14:09:42
210071,71,100,100,0,0,0,0,0,0,A,2026-01-07 14:09:43
210627,70,100,100,0,0,0,0,0,0,A,2026-01-07 14:09:43
211109,70,100,100,0,0,0,0,0,0,A,2026-01-07 14:09:44
211613,70,100,100,0,0,0,0,0,0,A,2026-01-07 14:09:44
212139,70,100,100,0,0,0,0,0,0,A,2026-01-07 14:09:45
212648,70,100,100,0,0,0,0,0,0,A,2026-01-07 14:09:46
213154,69,100,100,0,0,0,0,0,0,A,2026-01-07 14:09:46
213671,69,100,100,0,0,0,0,0,0,A,2026-01-07 14:09:46
214171,70,100,100,0,0,0,0,0,0,A,2026-01-07 14:09:47
214695,70,100,100,0,0,0,0,0,0,A,2026-01-07 14:09:47
215208,69,100,100,0,0,0,0,0,0,A,2026-01-07 14:09:48
215719,69,100,100,0,0,0,0,0,0,A,2026-01-07 14:09:48
216241,70,100,100,0,0,0,0,0,0,A,2026-01-07 14:09:49
216741,70,100,100,0,0,0,0,0,0,A,2026-01-07 14:09:50
217259,70,100,100,0,0,0,0,0,0,A,2026-01-07 14:09:50
217765,70,100,100,0,0,0,0,0,0,A,2026-01-07 14:09:51
218278,70,100,100,0,0,0,0,0,0,A,2026-01-07 14:09:51
218779,70,100,100,0,0,0,0,0,0,A,2026-01-07 14:09:52
219312,70,100,100,0,0,0,0,0,0,A,2026-01-07 14:09:52
219821,69,100,100,0,0,0,0,0,0,A,2026-01-07 14:09:53
220324,70,100,100,0,0,0,0,0,0,A,2026-01-07 14:09:53
220838,70,100,100,0,0,0,0,0,0,A,2026-01-07 14:09:54
221351,70,100,100,0,0,0,0,0,0,A,2026-01-07 14:09:54
221854,69,100,100,0,0,0,0,0,0,A,2026-01-07 14:09:55
222377,70,100,100,0,0,0,0,0,0,A,2026-01-07 14:09:55
222888,70,100,100,0,0,0,0,0,0,A,2026-01-07 14:09:56
223401,70,100,100,0,0,0,0,0,0,A,2026-01-07 14:09:56
223919,71,100,100,0,0,0,0,0,0,A,2026-01-07 14:09:57
224474,70,100,100,0,0,0,0,0,0,A,2026-01-07 14:09:57
225029,70,100,100,0,0,0,0,0,0,A,2026-01-07 14:09:58
225477,69,100,100,0,0,0,0,0,0,A,2026-01-07 14:09:58
226030,70,100,100,0,0,0,0,0,0,A,2026-01-07 14:09:59
226581,70,100,100,0,0,0,0,0,0,A,2026-01-07 14:09:59
227088,70,100,100,0,0,0,0,0,0,A,2026-01-07 14:10:00
227599,69,100,100,0,0,0,0,0,0,A,2026-01-07 14:10:00
228101,70,100,100,0,0,0,0,0,0,A,2026-01-07 14:10:01
228627,70,100,100,0,0,0,0,0,0,A,2026-01-07 14:10:01
229139,70,100,100,0,0,0,0,0,0,A,2026-01-07 14:10:02
229649,70,100,100,0,0,0,0,0,0,A,2026-01-07 14:10:02
230148,70,100,100,0,0,0,0,0,0,A,2026-01-07 14:10:03
230669,70,100,100,0,0,0,0,0,0,A,2026-01-07 14:10:03
231180,69,100,100,0,0,0,0,0,0,A,2026-01-07 14:10:04
231698,70,100,100,0,0,0,0,0,0,A,2026-01-07 14:10:04
232250,70,100,100,0,0,0,0,0,0,A,2026-01-07 14:10:05
232806,70,100,100,0,0,0,0,0,0,A,2026-01-07 14:10:06
233252,70,100,100,0,0,0,0,0,0,A,2026-01-07 14:10:06
233752,70,100,100,0,0,0,0,0,0,A,2026-01-07 14:10:06
234308,70,100,100,0,0,0,0,0,0,A,2026-01-07 14:10:07
234759,69,100,100,0,0,0,0,0,0,A,2026-01-07 14:10:08
235279,70,100,100,0,0,0,0,0,0,A,2026-01-07 14:10:08
235789,70,100,100,0,0,0,0,0,0,A,2026-01-07 14:10:09
236298,69,100,100,0,0,0,0,0,0,A,2026-01-07 14:10:09
236806,70,100,100,0,0,0,0,0,0,A,2026-01-07 14:10:10
237307,70,100,100,0,0,0,0,0,0,A,2026-01-07 14:10:10
237839,70,100,100,0,0,0,0,0,0,A,2026-01-07 14:10:11
238390,74,100,100,0,0,0,0,0,0,A,2026-01-07 14:10:11
238891,74,100,100,0,0,0,0,0,0,A,2026-01-07 14:10:12
239391,72,100,100,0,0,0,0,0,0,A,2026-01-07 14:10:12
239892,74,100,100,0,0,0,0,0,0,A,2026-01-07 14:10:13
240399,74,100,100,0,0,0,0,0,0,A,2026-01-07 14:10:13
240918,74,100,100,0,0,0,0,0,0,A,2026-01-07 14:10:14
241419,73,100,100,0,0,0,0,0,0,A,2026-01-07 14:10:14
241939,71,100,100,0,0,0,0,0,0,A,2026-01-07 14:10:15
242444,73,100,100,0,0,0,0,0,0,A,2026-01-07 14:10:15
243000,74,100,100,0,0,0,0,0,0,A,2026-01-07 14:10:16
243501,74,100,100,0,0,0,0,0,0,A,2026-01-07 14:10:16
244003,74,100,100,0,0,0,0,0,0,A,2026-01-07 14:10:17
244508,74,100,100,0,0,0,0,0,0,A,2026-01-07 14:10:17
245010,74,100,100,0,0,0,0,0,0,A,2026-01-07 14:10:18
245529,74,100,100,0,0,0,0,0,0,A,2026-01-07 14:10:18
246031,74,100,100,0,0,0,0,0,0,A,2026-01-07 14:10:19
246538,74,100,100,0,0,0,0,0,0,A,2026-01-07 14:10:19
247092,75,100,100,0,0,0,0,0,0,A,2026-01-07 14:10:20
247592,74,100,100,0,0,0,0,0,0,A,2026-01-07 14:10:20
248147,74,100,100,0,0,0,0,0,0,A,2026-01-07 14:10:21
248595,74,100,100,0,0,0,0,0,0,A,2026-01-07 14:10:21
249095,74,100,100,0,0,0,0,0,0,A,2026-01-07 14:10:22
249619,75,100,100,0,0,0,0,0,0,A,2026-01-07 14:10:22
250140,75,100,100,0,0,0,0,0,0,A,2026-01-07 14:10:23
250640,74,100,100,0,0,0,0,0,0,A,2026-01-07 14:10:23
251161,75,100,100,0,0,0,0,0,0,A,2026-01-07 14:10:24
251661,75,100,100,0,0,0,0,0,0,A,2026-01-07 14:10:24
252171,74,100,100,0,0,0,0,0,0,A,2026-01-07 14:10:25
252698,74,100,100,0,0,0,0,0,0,A,2026-01-07 14:10:25
253198,75,100,100,0,0,0,0,0,0,A,2026-01-07 14:10:26
253700,75,100,100,0,0,0,0,0,0,A,2026-01-07 14:10:26
254250,75,100,100,0,0,0,0,0,0,A,2026-01-07 14:10:27
254751,74,100,100,0,0,0,0,0,0,A,2026-01-07 14:10:28
255251,74,100,100,0,0,0,0,0,0,A,2026-01-07 14:10:28
255751,75,100,100,0,0,0,0,0,0,A,2026-01-07 14:10:29
256269,75,100,100,0,0,0,0,0,0,A,2026-01-07 14:10:29
256771,74,100,100,0,0,0,0,0,0,A,2026-01-07 14:10:30
257309,74,100,100,0,0,0,0,0,0,A,2026-01-07 14:10:30
257810,74,100,100,0,0,0,0,0,0,A,2026-01-07 14:10:31
258320,75,100,100,0,0,0,0,0,0,A,2026-01-07 14:10:31
258821,74,100,100,0,0,0,0,0,0,A,2026-01-07 14:10:32
259338,75,100,100,0,0,0,0,0,0,A,2026-01-07 14:10:32
259860,75,100,100,0,0,0,0,0,0,A,2026-01-07 14:10:33
260381,75,100,100,0,0,0,0,0,0,A,2026-01-07 14:10:33
260882,75,100,100,0,0,0,0,0,0,A,2026-01-07 14:10:34
261392,74,100,100,0,0,0,0,0,0,A,2026-01-07 14:10:34
261901,74,100,100,0,0,0,0,0,0,A,2026-01-07 14:10:35
262422,74,100,100,0,0,0,0,0,0,A,2026-01-07 14:10:35
262930,74,100,100,0,0,0,0,0,0,A,2026-01-07 14:10:36
263432,74,100,100,0,0,0,0,0,0,A,2026-01-07 14:10:36
263951,74,100,100,0,0,0,0,0,0,A,2026-01-07 14:10:37
264460,75,100,100,0,0,0,0,0,0,A,2026-01-07 14:10:37
264979,75,100,100,0,0,0,0,0,0,A,2026-01-07 14:10:38
265490,74,100,100,0,0,0,0,0,0,A,2026-01-07 14:10:38
265990,74,100,100,0,0,0,0,0,0,A,2026-01-07 14:10:39
266509,74,100,100,0,0,0,0,0,0,A,2026-01-07 14:10:39
267021,74,100,100,0,0,0,0,0,0,A,2026-01-07 14:10:40
267531,74,100,100,0,0,0,0,0,0,A,2026-01-07 14:10:40
268031,75,100,100,0,0,0,0,0,0,A,2026-01-07 14:10:41
268558,74,100,100,0,0,0,0,0,0,A,2026-01-07 14:10:41
269079,74,100,100,0,0,0,0,0,0,A,2026-01-07 14:10:42
269588,74,100,100,0,0,0,0,0,0,A,2026-01-07 14:10:42
270093,74,100,100,0,0,0,0,0,0,A,2026-01-07 14:10:43
270647,74,100,100,0,0,0,0,0,0,A,2026-01-07 14:10:43
271118,74,100,100,0,0,0,0,0,0,A,2026-01-07 14:10:44
271634,74,100,100,0,0,0,0,0,0,A,2026-01-07 14:10:44
272182,74,100,100,0,0,0,0,0,0,A,2026-01-07 14:10:45
272682,74,100,100,0,0,0,0,0,0,A,2026-01-07 14:10:45
273183,74,100,100,0,0,0,0,0,0,A,2026-01-07 14:10:46
273684,74,100,100,0,0,0,0,0,0,A,2026-01-07 14:10:46
274199,74,100,100,0,0,0,0,0,0,A,2026-01-07 14:10:47
274752,74,100,100,0,0,0,0,0,0,A,2026-01-07 14:10:48
275253,74,100,100,0,0,0,0,0,0,A,2026-01-07 14:10:48
275754,74,100,100,0,0,0,0,0,0,A,2026-01-07 14:10:49
276256,74,100,100,0,0,0,0,0,0,A,2026-01-07 14:10:49
276757,74,100,100,0,0,0,0,0,0,A,2026-01-07 14:10:50
277272,76,100,100,0,0,0,0,0,0,A,2026-01-07 14:10:50
277780,77,100,100,0,0,0,0,0,0,A,2026-01-07 14:10:51
278298,75,100,100,0,0,0,0,0,0,A,2026-01-07 14:10:51
278799,75,100,100,0,0,0,0,0,0,A,2026-01-07 14:10:52
279309,76,100,100,0,0,0,0,0,0,A,2026-01-07 14:10:52
279809,76,100,100,0,0,0,0,0,0,A,2026-01-07 14:10:53
280311,76,100,100,0,0,0,0,0,0,A,2026-01-07 14:10:53
280853,76,100,100,0,0,0,0,0,0,A,2026-01-07 14:10:54
281357,75,100,100,0,0,0,0,0,0,A,2026-01-07 14:10:54
281869,76,100,100,0,0,0,0,0,0,A,2026-01-07 14:10:55
282379,76,100,100,0,0,0,0,0,0,A,2026-01-07 14:10:55
282894,75,100,100,0,0,0,0,0,0,A,2026-01-07 14:10:56
283410,76,100,100,0,0,0,0,0,0,A,2026-01-07 14:10:56
283961,75,100,100,0,0,0,0,0,0,A,2026-01-07 14:10:57
284462,75,100,100,0,0,0,0,0,0,A,2026-01-07 14:10:57
285017,74,100,100,0,0,0,0,0,0,A,2026-01-07 14:10:58
285463,74,100,100,0,0,0,0,0,0,A,2026-01-07 14:10:58
285964,75,100,100,0,0,0,0,0,0,A,2026-01-07 14:10:59
286476,75,100,100,0,0,0,0,0,0,A,2026-01-07 14:10:59
286993,74,100,100,0,0,0,0,0,0,A,2026-01-07 14:11:00
287495,74,100,100,0,0,0,0,0,0,A,2026-01-07 14:11:00
287994,75,100,100,0,0,0,0,0,0,A,2026-01-07 14:11:01
288494,76,100,100,0,0,0,0,0,0,A,2026-01-07 14:11:01
288996,75,100,100,0,0,0,0,0,0,A,2026-01-07 14:11:02
289496,75,100,100,0,0,0,0,0,0,A,2026-01-07 14:11:02
290051,75,100,100,0,0,0,0,0,0,A,2026-01-07 14:11:03
290600,75,100,100,0,0,0,0,0,0,A,2026-01-07 14:11:03
291101,74,100,100,0,0,0,0,0,0,A,2026-01-07 14:11:04
291650,75,100,100,0,0,0,0,0,0,A,2026-01-07 14:11:04
292150,75,100,100,0,0,0,0,0,0,A,2026-01-07 14:11:05
292652,75,100,100,0,0,0,0,0,0,A,2026-01-07 14:11:05
293153,75,100,100,0,0,0,0,0,0,A,2026-01-07 14:11:06
293653,74,100,100,0,0,0,0,0,0,A,2026-01-07 14:11:06
294170,75,100,100,0,0,0,0,0,0,A,2026-01-07 14:11:07
294671,75,100,100,0,0,0,0,0,0,A,2026-01-07 14:11:07
295182,75,100,100,0,0,0,0,0,0,A,2026-01-07 14:11:08
295701,75,100,100,0,0,0,0,0,0,A,2026-01-07 14:11:08
296201,74,100,100,0,0,0,0,0,0,A,2026-01-07 14:11:09
296702,75,100,100,0,0,0,0,0,0,A,2026-01-07 14:11:09
297239,74,100,100,0,0,0,0,0,0,A,2026-01-07 14:11:10
297739,75,100,100,0,0,0,0,0,0,A,2026-01-07 14:11:10
298291,75,100,100,0,0,0,0,0,0,A,2026-01-07 14:11:11
298844,75,100,100,0,0,0,0,0,0,A,2026-01-07 14:11:12
299374,75,100,100,0,0,0,0,0,0,A,2026-01-07 14:11:12
299928,75,100,100,0,0,0,0,0,0,A,2026-01-07 14:11:13
300406,76,100,100,0,0,0,0,0,0,A,2026-01-07 14:11:13
300961,75,100,100,0,0,0,0,0,0,A,2026-01-07 14:11:14
301511,75,100,100,0,0,0,0,0,0,A,2026-01-07 14:11:14
302011,77,100,100,0,0,0,0,0,0,A,2026-01-07 14:11:15
302554,74,100,100,0,0,0,0,0,0,A,2026-01-07 14:11:15
303070,76,100,100,0,0,0,0,0,0,A,2026-01-07 14:11:16
303571,75,100,100,0,0,0,0,0,0,A,2026-01-07 14:11:16
304071,75,100,100,0,0,0,0,0,0,A,2026-01-07 14:11:17
304609,76,100,100,0,0,0,0,0,0,A,2026-01-07 14:11:17
305141,77,100,100,0,0,0,0,0,0,A,2026-01-07 14:11:18
305641,75,100,100,0,0,0,0,0,0,A,2026-01-07 14:11:19
306162,76,100,100,0,0,0,0,0,0,A,2026-01-07 14:11:19
306675,75,100,100,0,0,0,0,0,0,A,2026-01-07 14:11:19
307175,77,100,100,0,0,0,0,0,0,A,2026-01-07 14:11:20
307716,75,100,100,0,0,0,0,0,0,A,2026-01-07 14:11:21
308216,76,100,100,0,0,0,0,0,0,A,2026-01-07 14:11:21
308725,76,100,100,0,0,0,0,0,0,A,2026-01-07 14:11:21
309239,75,100,100,0,0,0,0,0,0,A,2026-01-07 14:11:22
309752,75,100,100,0,0,0,0,0,0,A,2026-01-07 14:11:23
310260,75,100,100,0,0,0,0,0,0,A,2026-01-07 14:11:23
310761,75,100,100,0,0,0,0,0,0,A,2026-01-07 14:11:24
311261,76,100,100,0,0,0,0,0,0,A,2026-01-07 14:11:24
311771,77,100,100,0,0,0,0,0,0,A,2026-01-07 14:11:25
312311,75,100,100,0,0,0,0,0,0,A,2026-01-07 14:11:25
312813,74,100,100,0,0,0,0,0,0,A,2026-01-07 14:11:26
313362,76,100,100,0,0,0,0,0,0,A,2026-01-07 14:11:26
313864,74,100,100,0,0,0,0,0,0,A,2026-01-07 14:11:27
314365,76,100,100,0,0,0,0,0,0,A,2026-01-07 14:11:27
314867,75,100,100,0,0,0,0,0,0,A,2026-01-07 14:11:28
315370,75,100,100,0,0,0,0,0,0,A,2026-01-07 14:11:28
315873,76,100,100,0,0,0,0,0,0,A,2026-01-07 14:11:29
316389,76,100,100,0,0,0,0,0,0,A,2026-01-07 14:11:29
316891,75,100,100,0,0,0,0,0,0,A,2026-01-07 14:11:30
317413,76,100,100,0,0,0,0,0,0,A,2026-01-07 14:11:30
317923,75,100,100,0,0,0,0,0,0,A,2026-01-07 14:11:31
318439,75,100,100,0,0,0,0,0,0,A,2026-01-07 14:11:31
318942,75,100,100,0,0,0,0,0,0,A,2026-01-07 14:11:32
319442,75,100,100,0,0,0,0,0,0,A,2026-01-07 14:11:32
319962,76,100,100,0,0,0,0,0,0,A,2026-01-07 14:11:33
320479,75,100,100,0,0,0,0,0,0,A,2026-01-07 14:11:33
320978,75,100,100,0,0,0,0,0,0,A,2026-01-07 14:11:34
321500,75,100,100,0,0,0,0,0,0,A,2026-01-07 14:11:34
322009,76,100,100,0,0,0,0,0,0,A,2026-01-07 14:11:35
322520,75,100,100,0,0,0,0,0,0,A,2026-01-07 14:11:35
323039,75,100,100,0,0,0,0,0,0,A,2026-01-07 14:11:36
323556,75,100,100,0,0,0,0,0,0,A,2026-01-07 14:11:36
324075,75,100,100,0,0,0,0,0,0,A,2026-01-07 14:11:37
324630,75,100,100,0,0,0,0,0,0,A,2026-01-07 14:11:37
325088,76,100,100,0,0,0,0,0,0,A,2026-01-07 14:11:38
325588,76,100,100,0,0,0,0,0,0,A,2026-01-07 14:11:38
326110,75,100,100,0,0,0,0,0,0,A,2026-01-07 14:11:39
326619,74,100,100,0,0,0,0,0,0,A,2026-01-07 14:11:39
327129,75,100,100,0,0,0,0,0,0,A,2026-01-07 14:11:40
327640,75,100,100,0,0,0,0,0,0,A,2026-01-07 14:11:40
328141,76,100,100,0,0,0,0,0,0,A,2026-01-07 14:11:41
328693,75,100,100,0,0,0,0,0,0,A,2026-01-07 14:11:41
329248,75,100,100,0,0,0,0,0,0,A,2026-01-07 14:11:42
329694,76,100,100,0,0,0,0,0,0,A,2026-01-07 14:11:42
330195,75,100,100,0,0,0,0,0,0,A,2026-01-07 14:11:43
330719,74,100,100,0,0,0,0,0,0,A,2026-01-07 14:11:43
331240,74,100,100,0,0,0,0,0,0,A,2026-01-07 14:11:44
331743,75,100,100,0,0,0,0,0,0,A,2026-01-07 14:11:45
332254,75,100,100,0,0,0,0,0,0,A,2026-01-07 14:11:45
332756,76,100,100,0,0,0,0,0,0,A,2026-01-07 14:11:45
333311,76,100,100,0,0,0,0,0,0,A,2026-01-07 14:11:46
333853,76,100,100,0,0,0,0,0,0,A,2026-01-07 14:11:47
334354,75,100,100,0,0,0,0,0,0,A,2026-01-07 14:11:47
334909,75,100,100,0,0,0,0,0,0,A,2026-01-07 14:11:48
335433,76,100,100,0,0,0,0,0,0,A,2026-01-07 14:11:48
335933,76,100,100,0,0,0,0,0,0,A,2026-01-07 14:11:49
336450,76,100,100,0,0,0,0,0,0,A,2026-01-07 14:11:49
336979,75,100,100,0,0,0,0,0,0,A,2026-01-07 14:11:50
337480,74,100,100,0,0,0,0,0,0,A,2026-01-07 14:11:50
338032,75,100,100,0,0,0,0,0,0,A,2026-01-07 14:11:51
338532,75,100,100,0,0,0,0,0,0,A,2026-01-07 14:11:51
339033,75,100,100,0,0,0,0,0,0,A,2026-01-07 14:11:52
339540,75,100,100,0,0,0,0,0,0,A,2026-01-07 14:11:52
340042,74,100,100,0,0,0,0,0,0,A,2026-01-07 14:11:53
340592,76,100,100,0,0,0,0,0,0,A,2026-01-07 14:11:53
341094,75,100,100,0,0,0,0,0,0,A,2026-01-07 14:11:54
341595,74,100,100,0,0,0,0,0,0,A,2026-01-07 14:11:54
342097,76,100,100,0,0,0,0,0,0,A,2026-01-07 14:11:55
342601,75,100,100,0,0,0,0,0,0,A,2026-01-07 14:11:55
343109,75,100,100,0,0,0,0,0,0,A,2026-01-07 14:11:56
343622,74,100,100,0,0,0,0,0,0,A,2026-01-07 14:11:56
344140,75,100,100,0,0,0,0,0,0,A,2026-01-07 14:11:57
344640,75,100,100,0,0,0,0,0,0,A,2026-01-07 14:11:57
345180,76,100,100,0,0,0,0,0,0,A,2026-01-07 14:11:58
345682,76,100,100,0,0,0,0,0,0,A,2026-01-07 14:11:58
346184,75,100,100,0,0,0,0,0,0,A,2026-01-07 14:11:59
346685,75,100,100,0,0,0,0,0,0,A,2026-01-07 14:11:59
347193,76,100,100,0,0,0,0,0,0,A,2026-01-07 14:12:00
347714,76,100,100,0,0,0,0,0,0,A,2026-01-07 14:12:00
348221,74,100,100,0,0,0,0,0,0,A,2026-01-07 14:12:01
348764,75,100,100,0,0,0,0,0,0,A,2026-01-07 14:12:02
349265,74,100,100,0,0,0,0,0,0,A,2026-01-07 14:12:02
349821,76,100,100,0,0,0,0,0,0,A,2026-01-07 14:12:03
350377,75,100,100,0,0,0,0,0,0,A,2026-01-07 14:12:03
350840,76,100,100,0,0,0,0,0,0,A,2026-01-07 14:12:04
351340,76,100,100,0,0,0,0,0,0,A,2026-01-07 14:12:04
351892,74,100,100,0,0,0,0,0,0,A,2026-01-07 14:12:05
352430,75,100,100,0,0,0,0,0,0,A,2026-01-07 14:12:05
352932,74,100,100,0,0,0,0,0,0,A,2026-01-07 14:12:06
353433,76,100,100,0,0,0,0,0,0,A,2026-01-07 14:12:06
353935,76,100,100,0,0,0,0,0,0,A,2026-01-07 14:12:07
354475,75,100,100,0,0,0,0,0,0,A,2026-01-07 14:12:07
354975,76,100,100,0,0,0,0,0,0,A,2026-01-07 14:12:08
355529,75,100,100,0,0,0,0,0,0,A,2026-01-07 14:12:08
356011,75,100,100,0,0,0,0,0,0,A,2026-01-07 14:12:09
356521,75,100,100,0,0,0,0,0,0,A,2026-01-07 14:12:09
357022,77,100,100,0,0,0,0,0,0,A,2026-01-07 14:12:10
357523,76,100,100,0,0,0,0,0,0,A,2026-01-07 14:12:10
358079,75,100,100,0,0,0,0,0,0,A,2026-01-07 14:12:11
358569,75,100,100,0,0,0,0,0,0,A,2026-01-07 14:12:11
359080,76,100,100,0,0,0,0,0,0,A,2026-01-07 14:12:12
359595,76,100,100,0,0,0,0,0,0,A,2026-01-07 14:12:12
360149,75,100,100,0,0,0,0,0,0,A,2026-01-07 14:12:13
360623,75,100,100,0,0,0,0,0,0,A,2026-01-07 14:12:13
361133,75,100,100,0,0,0,0,0,0,A,2026-01-07 14:12:14
361643,74,100,100,0,0,0,0,0,0,A,2026-01-07 14:12:14
362145,74,100,100,0,0,0,0,0,0,A,2026-01-07 14:12:15
362665,75,100,100,0,0,0,0,0,0,A,2026-01-07 14:12:15
363176,75,100,100,0,0,0,0,0,0,A,2026-01-07 14:12:16
363691,75,100,100,0,0,0,0,0,0,A,2026-01-07 14:12:16
364201,76,100,100,0,0,0,0,0,0,A,2026-01-07 14:12:17
364756,76,100,100,0,0,0,0,0,0,A,2026-01-07 14:12:17
365310,75,100,100,0,0,0,0,0,0,A,2026-01-07 14:12:18
365770,73,100,99,0,0,0,0,0,0,A,2026-01-07 14:12:19
366270,71,100,97,0,0,0,0,0,0,A,2026-01-07 14:12:19
366783,70,100,97,0,0,0,0,0,0,A,2026-01-07 14:12:19
367339,72,100,98,0,0,0,0,0,0,A,2026-01-07 14:12:20
367790,71,100,97,0,0,0,0,0,0,A,2026-01-07 14:12:20
368342,67,100,91,0,0,0,0,0,0,A,2026-01-07 14:12:21
368844,67,100,91,0,0,0,0,0,0,A,2026-01-07 14:12:22
369346,66,100,90,0,0,0,0,0,0,A,2026-01-07 14:12:22
369900,66,100,89,0,0,0,0,0,0,A,2026-01-07 14:12:23
370350,65,100,89,0,0,0,0,0,0,A,2026-01-07 14:12:23
370903,64,100,88,0,0,0,0,0,0,A,2026-01-07 14:12:24
371459,65,100,89,0,0,0,0,0,0,A,2026-01-07 14:12:24
371906,64,100,90,0,0,0,0,0,0,A,2026-01-07 14:12:25
372460,65,100,89,0,0,0,0,0,0,A,2026-01-07 14:12:25
372909,64,100,90,0,0,0,0,0,0,A,2026-01-07 14:12:26
373416,64,100,88,0,0,0,0,0,0,A,2026-01-07 14:12:26
373930,63,100,87,0,0,0,0,0,0,A,2026-01-07 14:12:27
374432,64,100,89,0,0,0,0,0,0,A,2026-01-07 14:12:27
374941,65,100,88,0,0,0,0,0,0,A,2026-01-07 14:12:28
375492,63,100,88,0,0,0,0,0,0,A,2026-01-07 14:12:28
375993,64,100,87,0,0,0,0,0,0,A,2026-01-07 14:12:29
376493,64,100,89,0,0,0,0,0,0,A,2026-01-07 14:12:29
376995,63,100,89,0,0,0,0,0,0,A,2026-01-07 14:12:30
