timestamp,flex_thumb,flex_index,flex_middle,gyro_x,gyro_y,gyro_z,accel_x,accel_y,accel_z,label,datetime
239899,0,74,52,-11.05,13.79,3.42,1.03,-0.17,-0.04,D,2026-01-10 09:49:27
240400,0,89,46,2.67,2.61,3.28,1.01,-0.14,0.03,D,2026-01-10 09:49:28
240916,0,73,63,-3.95,-0.23,2.66,1.02,-0.13,0.02,D,2026-01-10 09:49:28
241417,0,47,65,6.81,-2.44,-2.4,1.05,0.04,-0.04,D,2026-01-10 09:49:29
242230,0,55,65,3.01,0.81,6.15,0.99,-0.21,0.02,D,2026-01-10 09:49:29
242674,0,59,68,-4.47,-12.58,-14.09,0.89,-0.11,-0.12,D,2026-01-10 09:49:30
243234,0,60,70,-0.35,13.94,-0.69,1.02,-0.14,0.02,D,2026-01-10 09:49:30
243681,0,66,68,1.94,9.86,-3.62,1,-0.15,0.02,D,2026-01-10 09:49:31
244182,0,69,72,5.04,0.81,6.49,1.02,-0.1,0.09,D,2026-01-10 09:49:32
244781,0,69,72,1.94,7.44,1.01,1,-0.11,0.07,D,2026-01-10 09:49:32
245265,0,59,100,2.29,18.08,-4.5,0.99,-0.13,0.09,D,2026-01-10 09:49:32
245801,0,62,100,2.35,-1.56,3.5,0.98,-0.08,0.21,D,2026-01-10 09:49:33
246303,0,62,100,-0.4,-25.3,9.34,0.99,-0.09,0.16,D,2026-01-10 09:49:34
246869,0,62,100,-2.11,-2.03,1.94,1.01,-0.18,-0.04,D,2026-01-10 09:49:34
247628,0,62,100,-0.52,2.81,0.73,1,-0.17,-0.05,D,2026-01-10 09:49:35
248240,0,62,100,-2.11,2.03,0.89,1.01,-0.17,-0.04,D,2026-01-10 09:49:35
248685,0,60,100,-0.34,3.86,0.99,1.01,-0.18,-0.03,D,2026-01-10 09:49:36
249368,0,58,100,-1.85,2.08,0.87,1,-0.17,-0.04,D,2026-01-10 09:49:37
249881,0,58,100,-0.78,3.27,1.02,1.01,-0.17,-0.06,D,2026-01-10 09:49:37
250327,0,62,100,-1.34,3.01,0.17,1.01,-0.18,-0.06,D,2026-01-10 09:49:38
251024,0,62,100,-1.69,2.98,0.31,1,-0.19,-0.05,D,2026-01-10 09:49:38
251471,0,65,100,-1.01,2.46,0.18,1.01,-0.18,-0.06,D,2026-01-10 09:49:38
251971,0,64,100,-0.53,3.68,0.12,1.01,-0.18,-0.06,D,2026-01-10 09:49:39
252471,0,64,100,-0.26,0.32,1.18,1.01,-0.19,-0.07,D,2026-01-10 09:49:40
253069,0,64,100,-1.31,2.12,0.12,1.01,-0.18,-0.05,D,2026-01-10 09:49:40
253668,0,64,100,-3.22,2.7,0.24,1,-0.18,-0.04,D,2026-01-10 09:49:41
254132,0,69,100,-1.21,1.65,0.52,1.01,-0.18,-0.06,D,2026-01-10 09:49:41
254632,0,65,100,-0.46,1.25,0.58,1,-0.18,-0.06,D,2026-01-10 09:49:42
255134,0,67,100,-2.14,0.31,1.24,1.01,-0.18,-0.07,D,2026-01-10 09:49:42
255634,0,72,100,0.06,3.59,-0.35,1,-0.18,-0.05,D,2026-01-10 09:49:43
256152,0,68,100,-2.37,2.99,0.06,1.02,-0.15,-0.01,D,2026-01-10 09:49:43
256668,0,70,100,-1.1,2.58,0.43,1,-0.17,-0.06,D,2026-01-10 09:49:44
257186,0,68,100,-1.51,2,0.76,1.01,-0.18,-0.06,D,2026-01-10 09:49:44
257688,0,68,100,-2.95,2.67,1.05,1.01,-0.18,-0.07,D,2026-01-10 09:49:45
258190,0,70,100,-1.65,1.42,0.38,1.01,-0.17,-0.07,D,2026-01-10 09:49:45
258715,0,69,100,-1.4,2.02,0.61,1.01,-0.17,-0.07,D,2026-01-10 09:49:46
259214,0,68,100,-1.24,1.47,0.78,1.01,-0.18,-0.07,D,2026-01-10 09:49:46
259728,0,68,100,-2.06,3.08,1.01,1.01,-0.19,-0.06,D,2026-01-10 09:49:47
260238,0,68,100,-1.51,2.55,0.34,1.01,-0.18,-0.06,D,2026-01-10 09:49:47
260739,0,72,100,-1.42,2.84,0.5,1.01,-0.18,-0.07,D,2026-01-10 09:49:48
261265,0,69,100,-3.5,2.53,1.1,1,-0.18,-0.07,D,2026-01-10 09:49:48
261768,0,70,100,-1.8,2.66,0.17,1,-0.2,-0.06,D,2026-01-10 09:49:49
262269,0,65,85,-1.92,0.14,1.05,1,-0.2,-0.09,D,2026-01-10 09:49:49
262794,0,67,81,-1.97,2.5,0.37,1,-0.18,-0.08,D,2026-01-10 09:49:50
263330,0,66,80,-1.6,1.83,0.7,1.01,-0.19,-0.08,D,2026-01-10 09:49:51
263839,0,67,82,-1.37,2.52,0.49,1,-0.19,-0.07,D,2026-01-10 09:49:51
264340,0,68,87,-1.74,2.44,0.72,1.01,-0.18,-0.07,D,2026-01-10 09:49:51
264844,0,68,81,-1.25,2.12,0.69,1,-0.19,-0.07,D,2026-01-10 09:49:52
265396,0,69,81,-1.63,2.2,0.85,1.01,-0.18,-0.08,D,2026-01-10 09:49:53
266056,0,67,80,-1.3,3.74,0.46,1.01,-0.19,-0.07,D,2026-01-10 09:49:53
266503,0,64,83,-2.17,3.3,0.55,1.01,-0.2,-0.08,D,2026-01-10 09:49:53
267003,0,68,83,-2.03,2.09,-0.06,1,-0.19,-0.08,D,2026-01-10 09:49:54
267507,0,66,83,-4,1.08,0.46,1,-0.21,-0.1,D,2026-01-10 09:49:54
268009,0,67,83,-0.69,4.08,0.4,1.01,-0.2,-0.06,D,2026-01-10 09:49:55
268535,0,70,84,-0.84,1.56,1.13,1.01,-0.18,-0.05,D,2026-01-10 09:49:55
269042,0,70,83,-1.59,1.44,0.4,1.01,-0.18,-0.09,D,2026-01-10 09:49:56
269563,0,70,80,-2.18,2.06,0.29,1.01,-0.19,-0.07,D,2026-01-10 09:49:57
270076,0,71,80,-1.24,2.2,0.2,1,-0.19,-0.08,D,2026-01-10 09:49:57
270583,0,70,83,-0.67,2.18,0.43,1.01,-0.18,-0.07,D,2026-01-10 09:49:58
271480,0,69,83,-1.24,2.11,0.69,1.01,-0.18,-0.07,D,2026-01-10 09:49:58
271955,0,71,82,-1.95,1.01,0.66,1.01,-0.17,-0.07,D,2026-01-10 09:49:59
272522,0,70,82,-0.43,2.14,0.73,1.01,-0.17,-0.07,D,2026-01-10 09:50:00
273039,0,70,82,-1.47,-2.15,1.8,1,-0.19,-0.1,D,2026-01-10 09:50:00
273535,0,69,82,-2.5,2.63,-0.11,1,-0.21,-0.13,D,2026-01-10 09:50:00
274037,0,74,83,0.12,3.85,0.31,1.01,-0.2,-0.14,D,2026-01-10 09:50:01
274764,0,74,80,-2.37,2.55,0,1,-0.2,-0.13,D,2026-01-10 09:50:02
275214,0,82,87,-0.84,1.56,0.89,1,-0.18,-0.14,D,2026-01-10 09:50:03
275809,0,80,85,-0.15,1.45,0.79,0.99,-0.18,-0.13,D,2026-01-10 09:50:03
276301,0,80,88,-4.76,0.05,-0.85,1,-0.19,-0.14,D,2026-01-10 09:50:03
276802,0,82,86,-10.98,6.08,1.18,1,-0.15,-0.11,D,2026-01-10 09:50:04
277337,0,89,83,5.01,2.73,1.04,1,-0.17,-0.14,D,2026-01-10 09:50:05
277861,0,91,76,0.47,3.16,-0.03,1,-0.16,-0.12,D,2026-01-10 09:50:05
278416,0,82,77,-0.99,5.24,0.46,1.01,-0.16,-0.14,D,2026-01-10 09:50:06
278916,0,65,79,-0.75,1.6,0.37,1.01,-0.16,-0.12,D,2026-01-10 09:50:06
279418,0,59,78,-1.24,4.64,0.12,1.01,-0.16,-0.12,D,2026-01-10 09:50:06
279919,0,60,78,-0.81,2.6,0.37,1.01,-0.16,-0.12,D,2026-01-10 09:50:07
280422,0,59,78,-1.54,1.85,0.81,1.01,-0.16,-0.12,D,2026-01-10 09:50:07
280927,0,62,75,-1.11,2.56,0.52,1.01,-0.15,-0.12,D,2026-01-10 09:50:08
281434,0,62,75,-1.3,3.19,0.56,1.01,-0.16,-0.12,D,2026-01-10 09:50:08
281934,0,64,77,-1.45,2.06,0.6,1.01,-0.15,-0.12,D,2026-01-10 09:50:09
282466,0,64,74,-1.39,2.17,0.47,1.01,-0.16,-0.12,D,2026-01-10 09:50:10
282990,0,63,74,-1.3,2.66,0.84,1.01,-0.16,-0.12,D,2026-01-10 09:50:10
283491,0,66,75,-2.32,2.17,0.9,1.01,-0.16,-0.13,D,2026-01-10 09:50:11
284281,0,64,75,-2.92,4.05,-0.09,1.01,-0.15,-0.11,D,2026-01-10 09:50:11
284726,0,64,76,-1.63,2.38,-0.15,1.01,-0.15,-0.13,D,2026-01-10 09:50:12
285309,0,67,76,-1.77,5.15,-0.05,1.01,-0.14,-0.12,D,2026-01-10 09:50:12
285755,0,70,78,-2.38,9.22,0.47,1.01,-0.14,-0.1,D,2026-01-10 09:50:13
286256,0,68,80,-2.55,2.12,0.32,1.02,-0.13,-0.07,D,2026-01-10 09:50:13
286809,0,70,77,-0.92,1.42,1.3,1.01,-0.15,-0.09,D,2026-01-10 09:50:14
287389,0,67,75,-2.73,-0.66,1.11,1.01,-0.15,-0.11,D,2026-01-10 09:50:14
287885,0,62,77,2.38,4.38,1.5,1.02,-0.14,-0.08,D,2026-01-10 09:50:15
288418,0,69,76,-1.31,2.11,1.21,1.01,-0.16,-0.11,D,2026-01-10 09:50:16
288919,0,63,79,-1.05,3.15,0.18,1.01,-0.15,-0.11,D,2026-01-10 09:50:16
289474,0,67,78,-1.94,1.56,0.87,1.01,-0.16,-0.11,D,2026-01-10 09:50:17
289925,0,70,78,-1.68,2.75,0.82,1.01,-0.15,-0.11,D,2026-01-10 09:50:17
290442,0,70,78,-1.66,2.44,0.56,1,-0.15,-0.11,D,2026-01-10 09:50:18
290944,0,68,75,-1.6,2.58,0.34,1.01,-0.16,-0.12,D,2026-01-10 09:50:18
291499,0,70,79,-1.33,3.11,0.29,1.01,-0.15,-0.1,D,2026-01-10 09:50:19
291985,0,68,79,-1.22,3.59,0.73,1.01,-0.15,-0.11,D,2026-01-10 09:50:19
292525,0,69,76,-0.73,2.6,0.38,1.01,-0.15,-0.1,D,2026-01-10 09:50:20
293136,0,69,76,-1.31,2.08,1.04,1.01,-0.16,-0.1,D,2026-01-10 09:50:20
293606,0,64,74,-1.27,1.08,1.45,1.01,-0.15,-0.11,D,2026-01-10 09:50:21
294237,0,64,74,-1.74,2.89,0.49,1.01,-0.16,-0.11,D,2026-01-10 09:50:21
294695,0,67,82,-1.76,1.89,0.99,1.01,-0.16,-0.11,D,2026-01-10 09:50:22
295195,0,70,78,-2.4,2.44,0.72,1.01,-0.16,-0.12,D,2026-01-10 09:50:23
295776,0,70,77,-1.22,1.88,0.78,1.01,-0.16,-0.12,D,2026-01-10 09:50:23
296221,0,67,83,-2.66,0.49,0.69,1.01,-0.17,-0.12,D,2026-01-10 09:50:24
296883,0,69,81,-1.89,0.34,1.44,1.01,-0.17,-0.13,D,2026-01-10 09:50:24
297408,0,72,80,-0.9,1.54,0.47,1,-0.17,-0.14,D,2026-01-10 09:50:24
297854,0,82,72,-0.73,2.92,0.89,1.01,-0.17,-0.14,D,2026-01-10 09:50:25
298563,0,82,70,1.47,2.06,0.73,1,-0.18,-0.14,D,2026-01-10 09:50:26
299031,0,72,65,-1.04,-8.84,4.12,1,-0.14,-0.08,D,2026-01-10 09:50:26
299553,0,72,57,-5.51,4.82,0.47,0.99,-0.21,-0.23,D,2026-01-10 09:50:26
300073,0,74,57,-1.68,1.74,0.49,1,-0.17,-0.13,D,2026-01-10 09:50:27
300587,0,77,56,-0.78,4.73,1.39,0.99,-0.19,-0.17,D,2026-01-10 09:50:28
301102,0,62,56,-2.89,1.18,1.62,1,-0.19,-0.15,D,2026-01-10 09:50:29
301923,0,61,56,-0.95,2.49,0.79,1,-0.18,-0.14,D,2026-01-10 09:50:29
302369,0,62,59,0.32,4.03,0.21,1.01,-0.17,-0.13,D,2026-01-10 09:50:30
302968,0,64,59,-1.33,4.82,0.75,1.01,-0.16,-0.15,D,2026-01-10 09:50:30
303467,0,64,55,-4.23,2.21,1.68,1,-0.2,-0.12,D,2026-01-10 09:50:31
304067,0,65,56,0.79,5.34,-0.44,1,-0.19,-0.14,D,2026-01-10 09:50:31
304513,0,70,56,-1.5,0.95,1.24,1,-0.2,-0.18,D,2026-01-10 09:50:32
305015,0,73,53,-0.56,6.49,-1.92,1,-0.18,-0.18,D,2026-01-10 09:50:32
305523,0,70,53,-1.33,5.22,-0.23,1.02,-0.14,-0.06,D,2026-01-10 09:50:32
306025,0,81,47,-6.02,5.37,-0.05,1.02,-0.15,-0.14,D,2026-01-10 09:50:33
306532,0,81,47,2.64,-1.63,2.96,0.99,-0.14,-0.01,D,2026-01-10 09:50:34
307326,0,81,46,-1.42,14.52,0.15,1.02,-0.17,-0.09,D,2026-01-10 09:50:34
307772,0,82,44,-10.02,12.56,-0.87,1.01,-0.13,0,D,2026-01-10 09:50:35
308276,0,82,47,-0.37,-2.52,2.55,1.01,-0.17,-0.05,D,2026-01-10 09:50:35
308777,0,70,48,-0.87,0.35,1.8,1.01,-0.16,-0.05,D,2026-01-10 09:50:36
309289,0,70,48,-1.86,7.74,-3.59,1.02,-0.14,-0.04,D,2026-01-10 09:50:36
309825,0,68,48,-0.61,1.79,-1.65,1.02,-0.14,-0.07,D,2026-01-10 09:50:37
310326,0,47,50,-0.79,3.53,0.46,1.02,-0.13,-0.05,D,2026-01-10 09:50:38
311111,0,47,50,-1.15,2.11,1.33,1.01,-0.14,-0.04,D,2026-01-10 09:50:38
311557,0,44,55,-2.41,5.65,0.56,1.01,-0.13,-0.03,D,2026-01-10 09:50:39
312059,0,47,52,-0.73,1.73,0.75,1.01,-0.14,-0.03,D,2026-01-10 09:50:39
312561,0,47,53,-1.4,1.57,0.99,1.02,-0.14,-0.04,D,2026-01-10 09:50:39
313091,0,47,50,-1.34,2.34,0.75,1.01,-0.14,-0.03,D,2026-01-10 09:50:40
313590,0,47,54,-1.71,2.56,0.56,1.01,-0.13,-0.04,D,2026-01-10 09:50:41
314110,0,45,48,-1.37,2.27,0.81,1.02,-0.13,-0.04,D,2026-01-10 09:50:41
314625,0,47,47,-7.74,2.58,-1.53,1.02,-0.15,-0.06,D,2026-01-10 09:50:42
315139,0,74,54,-1.16,8.4,-3.04,1.01,-0.15,-0.1,D,2026-01-10 09:50:42
315642,0,77,48,21.79,10.43,-7.8,0.97,-0.21,0,D,2026-01-10 09:50:43
316144,0,91,56,17.66,-7.42,1.16,1,-0.11,0.14,D,2026-01-10 09:50:43
316682,0,73,48,-9.02,4.76,4.89,1.02,-0.11,0.04,D,2026-01-10 09:50:44
317195,0,70,50,-2.08,1.82,-0.14,1.01,-0.08,0.1,D,2026-01-10 09:50:45
317787,0,70,50,-3.11,5.39,1.51,1.01,-0.09,0.04,D,2026-01-10 09:50:45
318234,0,96,49,0.44,-1.4,3.36,1.01,-0.11,0.02,D,2026-01-10 09:50:45
318735,0,100,52,-0.29,3.5,-1.48,1.02,-0.1,-0.01,D,2026-01-10 09:50:46
319236,0,100,54,-0.06,1.11,-5.08,1.02,-0.08,0.03,D,2026-01-10 09:50:46
319746,0,100,54,-1.83,3.6,1.65,1.01,-0.13,0.04,D,2026-01-10 09:50:47
320248,0,100,55,-2.82,6.81,3.47,1.02,-0.13,0.02,D,2026-01-10 09:50:47
320756,0,100,56,-4.47,13.36,1.45,1.02,-0.09,0.06,D,2026-01-10 09:50:48
321269,0,100,56,-3.05,0.23,-0.37,1,-0.11,0.08,D,2026-01-10 09:50:48
321789,0,100,58,-1.11,3.47,1.21,1,-0.14,0.05,D,2026-01-10 09:50:49
322304,0,97,58,-0.12,1.77,2.03,1.02,-0.11,0.05,D,2026-01-10 09:50:49
322804,0,67,59,-1.53,-0.35,0.56,1.01,-0.14,0.02,D,2026-01-10 09:50:50
323318,0,67,57,-2.84,3.1,1.13,1.01,-0.15,0.01,D,2026-01-10 09:50:50
323825,0,68,58,-5.13,2.47,-0.15,1.01,-0.14,0.01,D,2026-01-10 09:50:51
324349,0,72,56,-1.34,2.35,1.62,1.02,-0.16,-0.04,D,2026-01-10 09:50:51
324856,0,78,57,-1.28,3.48,1.42,1.02,-0.12,-0.07,D,2026-01-10 09:50:52
325465,0,78,57,-8.52,15.18,-7.66,1.06,-0.11,-0.13,D,2026-01-10 09:50:52
325930,0,78,60,-2.53,3.11,1.59,1.01,-0.12,-0.03,D,2026-01-10 09:50:53
326430,0,65,57,-1.51,1.47,0.49,1.02,-0.11,-0.04,D,2026-01-10 09:50:53
326932,0,60,61,-0.73,9.97,-0.15,1.01,-0.13,-0.03,D,2026-01-10 09:50:54
327806,0,62,61,-7.59,3.73,1.89,1.03,-0.12,-0.06,D,2026-01-10 09:50:55
328252,0,91,45,18.79,-8.61,0.82,1.02,-0.06,0.03,D,2026-01-10 09:50:55
328754,0,93,60,0.37,-4.55,2.76,1.02,-0.08,-0.02,D,2026-01-10 09:50:56
329269,0,100,52,-1.1,-2.99,2.03,1.03,-0.1,-0.04,D,2026-01-10 09:50:56
329820,0,100,55,0.56,13.44,0.52,1.01,-0.06,0.02,D,2026-01-10 09:50:57
330326,0,100,57,9.28,14.58,1.88,1,-0.07,0.14,D,2026-01-10 09:50:58
330826,0,97,58,7.59,-0.87,-1.48,1.01,-0.05,0.12,D,2026-01-10 09:50:58
331326,0,100,56,-0.78,5.05,-2.14,1.01,-0.06,0.11,D,2026-01-10 09:50:58
331826,0,100,46,-11.83,5.73,0.06,1,-0.05,0.17,D,2026-01-10 09:50:59
332339,0,100,48,2.37,8.27,2.18,1.02,-0.05,0.09,D,2026-01-10 09:50:59
332840,0,93,57,70.63,-2.89,0.44,1.01,0,0.14,D,2026-01-10 09:51:00
333393,0,93,57,20.14,-6.35,3.77,0.99,0.09,0.19,D,2026-01-10 09:51:00
333894,0,100,60,-2.61,-1.28,2.02,1.01,0.06,0.11,D,2026-01-10 09:51:01
334395,0,100,47,-15.59,4.5,1.53,1.01,0.07,0.09,D,2026-01-10 09:51:01
334928,0,96,52,-8.03,14.5,-3.91,1.02,0.06,0.15,D,2026-01-10 09:51:02
335430,0,70,52,-0.76,-1.5,1.73,1.01,0.1,0.17,D,2026-01-10 09:51:02
335932,0,58,100,-28.31,-0.41,2.75,1,0,0.15,D,2026-01-10 09:51:03
336467,0,61,86,-4.81,3.28,2.14,1.01,-0.08,0.1,D,2026-01-10 09:51:04
336988,0,66,100,-6.81,1.74,1.24,1.01,-0.08,0.12,D,2026-01-10 09:51:04
337489,0,65,75,-2.14,2.76,0.53,1.01,-0.07,0.1,D,2026-01-10 09:51:05
338043,0,62,64,-1.53,1.51,0.9,1.01,-0.08,0.1,D,2026-01-10 09:51:05
338490,0,65,63,-1.08,1.82,0.35,1,-0.1,0.11,D,2026-01-10 09:51:06
338998,0,62,65,-1.62,2.93,0.7,1.01,-0.1,0.09,D,2026-01-10 09:51:06
339498,0,63,75,-1.65,2.64,2.61,1.01,-0.09,0.08,D,2026-01-10 09:51:07
340029,0,67,100,-2.43,3.28,1.25,1.01,-0.1,0.1,D,2026-01-10 09:51:07
340529,0,70,100,-2.95,9.71,-5.24,1,-0.08,0.13,D,2026-01-10 09:51:08
341139,0,70,100,15.65,16.53,-0.87,1,-0.04,0.19,D,2026-01-10 09:51:08
341637,0,70,63,-0.41,2.02,2.58,0.95,-0.04,0.33,D,2026-01-10 09:51:09
342138,0,74,58,-2.21,3.83,1.34,0.95,-0.05,0.3,D,2026-01-10 09:51:09
342679,0,73,56,-1.66,1.1,0.63,0.96,-0.05,0.3,D,2026-01-10 09:51:10
343215,0,71,59,-1.74,1.98,0.92,0.96,-0.05,0.3,D,2026-01-10 09:51:10
343716,0,75,58,-1.39,1.1,0.82,0.97,-0.05,0.29,D,2026-01-10 09:51:11
344229,0,74,59,-0.93,3.44,-0.96,0.97,-0.04,0.26,D,2026-01-10 09:51:11
344731,0,74,58,3.63,-2.46,-4.87,1.01,-0.02,0.14,D,2026-01-10 09:51:12
345237,0,72,56,-1.65,-3.48,0.17,1,-0.02,0.14,D,2026-01-10 09:51:12
345791,0,80,54,-0.24,-2.34,-1.79,1,0.01,0.17,D,2026-01-10 09:51:13
346456,0,80,54,-8,2.93,-7.56,1.02,0.02,0.09,D,2026-01-10 09:51:13
346924,0,64,53,-0.75,-9.44,6.09,1.02,0.08,0.06,D,2026-01-10 09:51:14
347424,2,47,56,-7.44,4.61,-0.2,1.02,-0.05,0.03,D,2026-01-10 09:51:15
347924,0,59,55,-3.74,-0.49,3.4,1.02,-0.03,0.03,D,2026-01-10 09:51:15
348467,0,62,53,-1.37,-2.63,2.32,1.02,-0.03,0.02,D,2026-01-10 09:51:15
348976,0,63,56,-3.5,-2.26,-4.44,1.04,-0.02,-0.05,D,2026-01-10 09:51:16
349530,2,64,56,-2.85,0.03,-0.87,1.02,0.01,-0.01,D,2026-01-10 09:51:17
350131,0,64,56,-5.63,-2.93,2.95,1.03,0.05,0.04,D,2026-01-10 09:51:17
350577,1,78,57,-6.03,8.87,-0.92,1.01,-0.02,0.01,D,2026-01-10 09:51:18
351079,0,65,54,-0.64,15.89,-1.24,1.01,0.03,0.09,D,2026-01-10 09:51:18
351581,0,58,54,0.92,-3.39,2.73,1.01,0.02,0.12,D,2026-01-10 09:51:19
352093,13,47,55,-8.87,-26.46,4.44,1.02,-0.01,0.04,D,2026-01-10 09:51:19
352625,12,47,56,-1.15,8.69,-1.76,1.01,0,-0.13,D,2026-01-10 09:51:20
353202,9,59,55,-0.73,11.39,-1.66,1.02,-0.01,-0.09,D,2026-01-10 09:51:20
353649,9,59,56,-1.68,7.89,1.6,1.03,0.03,-0.02,D,2026-01-10 09:51:21
354154,6,59,55,5.25,15.86,8.24,1.03,0,-0.04,D,2026-01-10 09:51:21
354657,14,61,56,8.64,8.06,-1.3,1.02,-0.03,0.06,D,2026-01-10 09:51:22
355322,15,62,56,0.87,-2.81,-5.69,0.99,0.02,0.09,D,2026-01-10 09:51:22
355769,16,64,33,5.16,0.53,2.66,1.05,0.06,-0.04,D,2026-01-10 09:51:23
356292,21,69,34,-7.19,-7.63,-3.1,1.01,0.01,0.1,D,2026-01-10 09:51:23
356807,21,78,36,-1.69,1.79,0.5,1.02,0.02,0.06,D,2026-01-10 09:51:24
357314,25,82,37,2.44,4.64,2.41,1.02,0.03,0.06,D,2026-01-10 09:51:24
357814,19,77,41,-1.08,8.29,-0.55,1.02,0.04,0.08,D,2026-01-10 09:51:25
358316,20,72,48,1.21,0.23,1.05,1.02,0.03,0.03,D,2026-01-10 09:51:25
358853,4,82,49,-7.4,3.66,2,1.01,0.01,0.07,D,2026-01-10 09:51:26
359479,4,82,49,0.32,-3.25,4.2,1.02,-0.01,0.05,D,2026-01-10 09:51:26
359937,0,69,52,-1.01,-1.39,2.47,1.02,-0.01,0.02,D,2026-01-10 09:51:27
360493,0,72,52,-0.5,-0.81,-0.26,1.03,0,-0.02,D,2026-01-10 09:51:27
360941,0,81,74,1.42,-1.19,3.34,1.01,-0.03,-0.03,D,2026-01-10 09:51:28
361442,0,89,80,-0.93,0.75,2.75,1.02,-0.06,-0.05,D,2026-01-10 09:51:28
361943,0,71,53,-2.17,2.96,1.4,1.03,-0.08,-0.07,D,2026-01-10 09:51:29
362487,0,63,50,-0.7,0.9,1.05,1.02,-0.09,-0.08,D,2026-01-10 09:51:29
362986,0,62,52,-1.33,1.74,0.7,1.02,-0.08,-0.08,D,2026-01-10 09:51:30
363487,0,62,51,-1.62,2.08,1.07,1.01,-0.1,-0.08,D,2026-01-10 09:51:30
363989,0,59,52,-0.81,1.92,0.67,1.02,-0.09,-0.08,D,2026-01-10 09:51:31
364495,0,59,52,-0.08,0.24,1.34,1.02,-0.09,-0.08,D,2026-01-10 09:51:32
364994,0,68,51,-7.65,2.49,1.37,1.01,-0.07,-0.05,D,2026-01-10 09:51:32
365503,0,72,52,-2.78,-3.1,-0.93,1,-0.1,-0.11,D,2026-01-10 09:51:32
366005,0,74,57,-1.08,3.69,0.93,1.02,-0.07,-0.18,D,2026-01-10 09:51:33
366530,0,82,60,1.36,4.46,1.59,1.03,-0.08,-0.14,D,2026-01-10 09:51:34
367032,0,82,60,4.37,-16.82,-4.92,1.02,-0.09,-0.2,D,2026-01-10 09:51:34
367533,0,82,60,0.7,-1.95,-1.94,1,-0.04,-0.26,D,2026-01-10 09:51:34
368074,0,82,57,-2.82,-10.26,0.46,0.99,-0.09,-0.27,D,2026-01-10 09:51:35
368580,0,82,57,-1.57,3.5,-0.06,0.98,-0.06,-0.35,D,2026-01-10 09:51:35
369081,0,82,59,-2.63,2.38,0.2,0.98,-0.06,-0.33,D,2026-01-10 09:51:36
369602,0,68,58,-2.63,2.58,-0.98,0.98,-0.03,-0.33,D,2026-01-10 09:51:37
370124,35,70,59,0.08,2.37,0.08,0.99,-0.07,-0.28,D,2026-01-10 09:51:37
370627,36,70,58,-1.07,1.5,0.34,0.99,-0.06,-0.29,D,2026-01-10 09:51:38
371145,41,72,58,-1.15,6.14,0.43,0.99,-0.04,-0.28,D,2026-01-10 09:51:38
371653,42,69,57,-1.56,2.34,0.05,0.99,-0.06,-0.27,D,2026-01-10 09:51:39
372168,41,74,59,-1.63,1.86,0.32,0.99,-0.06,-0.28,D,2026-01-10 09:51:39
372668,42,75,60,-1.39,3.71,0.43,1,-0.04,-0.3,D,2026-01-10 09:51:40
373186,41,78,58,-1.51,3.6,0.03,1,-0.05,-0.29,D,2026-01-10 09:51:40
373707,42,74,58,-1.16,3.47,1.13,1,-0.06,-0.27,D,2026-01-10 09:51:41
374213,47,74,58,-0.46,3.56,0.75,1,-0.06,-0.28,D,2026-01-10 09:51:42
374834,47,77,58,-1.69,-1.74,0.43,1,-0.1,-0.24,D,2026-01-10 09:51:42
375286,42,75,57,-2.2,-2,-1.11,0.99,-0.07,-0.3,D,2026-01-10 09:51:42
375787,41,76,58,-0.44,-2.44,-1.47,0.99,-0.04,-0.34,D,2026-01-10 09:51:43
376287,44,75,58,-0.63,3.01,0.7,1,-0.07,-0.31,D,2026-01-10 09:51:43
376789,42,74,57,-1.92,0.02,1.65,1,-0.05,-0.27,D,2026-01-10 09:51:44
377309,40,73,58,-3.25,-5.28,1.25,0.99,-0.07,-0.28,D,2026-01-10 09:51:44
377831,44,77,58,-2.27,3.86,0.72,1,-0.05,-0.27,D,2026-01-10 09:51:45
378331,44,77,56,-1.27,7.88,1.57,0.99,-0.04,-0.29,D,2026-01-10 09:51:45
378833,42,79,57,-2.73,4.29,-0.43,0.99,-0.02,-0.31,D,2026-01-10 09:51:46
379428,44,79,57,-0.72,0.95,4.34,0.99,-0.02,-0.29,D,2026-01-10 09:51:46
379886,42,72,56,-0.02,3.74,3.22,0.98,-0.03,-0.28,D,2026-01-10 09:51:47
380388,41,72,56,-1.07,3.42,-0.06,1,-0.02,-0.3,D,2026-01-10 09:51:47
380890,42,74,56,-2.27,11.56,-6.95,1,-0.01,-0.26,D,2026-01-10 09:51:48
381390,42,70,55,-3.18,12.27,-0.09,0.95,-0.03,-0.32,D,2026-01-10 09:51:48
381897,45,60,57,0.49,4.69,-0.21,1,-0.01,-0.29,D,2026-01-10 09:51:49
382418,48,61,57,-0.46,6.47,0.15,1,-0.03,-0.27,D,2026-01-10 09:51:49
382918,44,63,56,-1.04,9.07,2,1.01,-0.03,-0.21,D,2026-01-10 09:51:50
383532,44,62,54,-2.89,2.03,-0.76,1.01,-0.04,-0.18,D,2026-01-10 09:51:50
384006,42,65,56,-1.34,2.95,0.87,1.02,-0.03,-0.21,D,2026-01-10 09:51:51
384541,42,63,56,-0.73,3.86,0.75,1.02,-0.03,-0.2,D,2026-01-10 09:51:51
385067,37,60,55,-1.08,4.53,1.74,1.02,-0.01,-0.18,D,2026-01-10 09:51:52
385590,34,59,55,-6.2,-11.83,-2.21,1.01,-0.08,-0.06,D,2026-01-10 09:51:52
386091,0,63,54,3.51,9.8,-2.95,1.01,-0.11,-0.09,D,2026-01-10 09:51:53
386615,0,63,53,-7.42,15.01,-6.32,1.04,0.02,-0.04,D,2026-01-10 09:51:54
387116,0,59,56,-18.7,-6.56,4.84,1.01,-0.03,-0.02,D,2026-01-10 09:51:54
387616,0,59,56,0.21,-4.47,3.88,1.02,-0.01,0.04,D,2026-01-10 09:51:55
388138,0,57,58,-2.02,2.31,0.69,1.01,-0.07,-0.03,D,2026-01-10 09:51:55
388689,0,59,64,-1.66,1.91,2.11,1.02,-0.04,-0.04,D,2026-01-10 09:51:56
389191,0,56,60,-0.21,0.9,1.54,1.02,-0.04,-0.04,D,2026-01-10 09:51:56
389693,0,61,61,-1.51,4.67,2.76,1.03,-0.03,-0.06,D,2026-01-10 09:51:57
390193,0,80,35,0.34,0.72,-1.89,1.02,-0.04,-0.03,D,2026-01-10 09:51:58
390824,0,82,35,-4.84,9.4,-5.02,1,0.05,0.17,D,2026-01-10 09:51:58
391319,0,100,57,2.03,-3.21,-0.52,1.03,-0.03,0.02,D,2026-01-10 09:51:58
391836,0,100,56,-4.72,0.72,0.44,1.01,0,0.01,D,2026-01-10 09:51:59
392340,0,100,56,3.33,-2.43,-5.47,1.03,0.12,0.03,D,2026-01-10 09:51:59
392854,0,100,52,0.4,1.4,-0.31,1.02,0,-0.04,D,2026-01-10 09:52:00
393367,0,100,52,-1.74,4.93,4.47,1.03,0.03,-0.09,D,2026-01-10 09:52:00
393874,1,100,78,-6.79,4.24,-0.81,1.02,-0.03,-0.04,D,2026-01-10 09:52:01
394396,7,100,78,-6.6,5.71,7.1,1.01,-0.07,-0.04,D,2026-01-10 09:52:01
394896,0,100,51,-18.05,14.14,-4.89,1.03,-0.06,-0.04,D,2026-01-10 09:52:02
395411,0,100,51,-2.34,10.02,-3.11,1.04,0,-0.01,D,2026-01-10 09:52:03
395911,39,100,58,14.98,14.17,-11.47,0.97,0.02,0.31,D,2026-01-10 09:52:03
396437,43,88,70,-1.16,-4.37,2.06,0.99,0.03,0.18,D,2026-01-10 09:52:03
396939,42,66,65,-7.19,-12.73,10.79,1,0.01,0.12,D,2026-01-10 09:52:04
397454,37,61,67,-0.76,5.92,-0.85,1.02,-0.08,0.02,D,2026-01-10 09:52:04
397970,42,62,67,-1.65,2.75,1.27,1.01,-0.08,0.03,D,2026-01-10 09:52:05
398492,43,66,67,-0.63,3.44,1.45,1.02,-0.07,0.03,D,2026-01-10 09:52:05
398992,44,61,63,-1.25,1.79,0.89,1.01,-0.08,0.03,D,2026-01-10 09:52:06
399491,39,58,66,-1.25,-4.12,6.44,1,-0.09,0.02,D,2026-01-10 09:52:06
400027,37,59,64,-2.61,1.76,2.09,1.01,-0.12,-0.03,D,2026-01-10 09:52:07
400530,34,61,65,-3.19,0.18,1.97,1.03,-0.16,-0.06,D,2026-01-10 09:52:08
401052,39,60,65,-5.01,7.05,-3.45,1.01,-0.19,-0.03,D,2026-01-10 09:52:08
401554,30,67,67,-1.48,1.1,4.08,1.02,-0.14,-0.03,D,2026-01-10 09:52:08
402056,36,83,64,-0.96,4.05,-6.27,1.01,-0.11,-0.05,D,2026-01-10 09:52:09
402604,47,93,63,2.12,-10.73,-11.1,1.01,-0.04,-0.1,D,2026-01-10 09:52:09
403156,0,93,64,0.67,0.56,1.47,1.01,-0.11,-0.08,D,2026-01-10 09:52:10
403657,0,99,62,-2.09,2.81,1.54,1.01,-0.12,-0.12,D,2026-01-10 09:52:11
404213,0,95,60,-1.68,2.49,1.65,1.02,-0.1,-0.12,D,2026-01-10 09:52:11
404735,0,95,60,-1.47,1.5,1.3,1.01,-0.12,-0.11,D,2026-01-10 09:52:12
405202,0,67,61,0.18,2.76,-0.21,1.02,-0.13,-0.12,D,2026-01-10 09:52:12
405753,0,59,61,1.8,2.27,0.14,1.03,-0.04,-0.09,D,2026-01-10 09:52:13
406271,0,60,62,-0.55,2.5,-0.76,1.01,-0.11,-0.14,D,2026-01-10 09:52:14
406778,0,60,62,4.95,6.55,-12.46,1.03,0,-0.08,D,2026-01-10 09:52:14
407328,0,64,62,2.32,-2.03,5.25,1.02,-0.06,-0.07,D,2026-01-10 09:52:15
407901,0,64,62,1.33,4.05,0.18,1.01,-0.13,-0.13,D,2026-01-10 09:52:15
408348,0,71,62,-4.7,3.94,4.78,1.03,-0.13,0.02,D,2026-01-10 09:52:16
408849,0,69,59,-3.15,1.4,-0.64,1,-0.14,-0.1,D,2026-01-10 09:52:16
409349,0,70,59,-2.49,1.8,2.52,1.02,-0.11,-0.1,D,2026-01-10 09:52:16
409850,0,72,57,-1.89,1.69,1.28,1.01,-0.12,-0.1,D,2026-01-10 09:52:17
410352,0,72,60,-1.59,2.02,0.79,1.01,-0.12,-0.12,D,2026-01-10 09:52:17
410853,0,74,60,-1.5,2.03,1.39,1.01,-0.12,-0.09,D,2026-01-10 09:52:18
