timestamp,flex_thumb,flex_index,flex_middle,gyro_x,gyro_y,gyro_z,accel_x,accel_y,accel_z,label,datetime
1610958,0,40,100,-2.32,4.6,0,0.99,-0.06,0.21,D,2026-01-10 11:43:23
1611616,0,42,100,-2.56,1.79,-0.14,0.98,-0.07,0.24,D,2026-01-10 11:43:23
1612094,0,40,100,-2.06,2.93,0.38,0.98,-0.06,0.22,D,2026-01-10 11:43:24
1612625,2,43,100,-1.62,2.2,0.23,0.99,-0.06,0.22,D,2026-01-10 11:43:24
1613148,5,40,100,-1.11,-2.23,0.29,0.98,-0.07,0.21,D,2026-01-10 11:43:25
1613688,2,43,100,-0.58,0.21,0.78,0.98,-0.07,0.22,D,2026-01-10 11:43:25
1614244,0,44,100,-0.58,-1.65,-1.22,1,-0.08,0.14,D,2026-01-10 11:43:26
1614877,0,43,100,-1.79,2.34,0.93,1,-0.07,0.18,D,2026-01-10 11:43:27
1615322,2,44,100,-1.57,3.37,1.56,0.99,-0.07,0.21,D,2026-01-10 11:43:28
1616143,3,44,100,-0.93,2.29,0.35,0.99,-0.06,0.19,D,2026-01-10 11:43:28
1616798,3,44,100,-1.56,3.79,0.84,0.99,-0.07,0.19,D,2026-01-10 11:43:29
1617297,2,46,100,-1.16,2.21,0.37,0.99,-0.07,0.2,D,2026-01-10 11:43:29
1618048,2,46,100,-1.5,1.83,0.92,0.99,-0.06,0.2,D,2026-01-10 11:43:30
1618533,0,37,100,-0.58,3.57,0.32,0.98,-0.04,0.22,D,2026-01-10 11:43:31
1619462,4,39,100,-1.5,3.69,-0.49,0.99,-0.05,0.19,D,2026-01-10 11:43:31
1620073,8,43,100,-1.57,2.81,0.26,0.99,-0.06,0.21,D,2026-01-10 11:43:32
1620518,10,44,100,-1.6,2.44,1.24,0.99,-0.06,0.2,D,2026-01-10 11:43:33
1621662,12,39,100,-2.52,3.8,0.31,0.99,-0.09,0.18,D,2026-01-10 11:43:34
1622971,8,44,100,0.03,5.88,3.31,0.97,-0.05,0.27,D,2026-01-10 11:43:35
1623557,9,44,100,-1.16,2.78,5.08,0.98,-0.08,0.22,D,2026-01-10 11:43:37
1625641,9,46,100,-0.08,1.68,1.27,0.99,-0.06,0.2,D,2026-01-10 11:43:38
1627075,12,46,100,-0.84,4.29,-1.31,0.99,-0.07,0.18,D,2026-01-10 11:43:39
1627804,9,46,100,-2.34,3.85,0.7,0.99,-0.06,0.18,D,2026-01-10 11:43:40
1628387,9,44,100,-1.3,1.83,0.63,0.99,-0.07,0.19,D,2026-01-10 11:43:40
1628843,9,43,100,-1.68,2.06,0.61,0.99,-0.05,0.2,D,2026-01-10 11:43:41
1629842,7,43,100,-0.55,1.08,0.93,0.99,-0.06,0.19,D,2026-01-10 11:43:43
1632172,9,43,100,-1.33,2.95,0.27,0.99,-0.06,0.21,D,2026-01-10 11:43:44
1632668,4,40,100,-1.71,1.48,0.52,1,-0.06,0.19,D,2026-01-10 11:43:45
1634302,5,40,100,-1.22,2.82,0.79,0.99,-0.07,0.18,D,2026-01-10 11:43:46
1634948,7,40,100,-1.5,2.73,0.79,0.99,-0.06,0.2,D,2026-01-10 11:43:47
1635489,7,44,100,-1.5,1.16,0.73,0.99,-0.07,0.18,D,2026-01-10 11:43:47
1636086,7,44,100,-1.62,1.79,0.52,0.99,-0.07,0.19,D,2026-01-10 11:43:48
1636908,8,44,100,-1.88,2.37,1.02,0.99,-0.06,0.2,D,2026-01-10 11:43:49
1638103,8,44,100,-4.56,1.66,1.19,0.99,-0.09,0.19,D,2026-01-10 11:43:50
1638794,8,47,100,-1.91,0.93,2.29,0.99,-0.09,0.18,D,2026-01-10 11:43:51
1639329,8,43,100,-0.53,1.97,0.84,1,-0.1,0.16,D,2026-01-10 11:43:51
1639995,8,44,100,-0.73,0.67,1.16,0.99,-0.12,0.18,D,2026-01-10 11:43:52
1640971,8,44,100,-1.39,2.49,0.78,0.99,-0.1,0.16,D,2026-01-10 11:43:53
1641516,7,47,100,-1.3,3.53,1.24,0.99,-0.1,0.2,D,2026-01-10 11:43:53
1641997,9,47,100,-0.58,1.59,0.26,0.99,-0.1,0.18,D,2026-01-10 11:43:54
1642507,5,46,100,-2.03,4.26,-0.21,0.98,-0.11,0.2,D,2026-01-10 11:43:55
1643119,5,46,100,-0.84,3.56,1.4,0.98,-0.1,0.2,D,2026-01-10 11:43:56
1644710,12,46,100,-1.54,2.85,0.81,1,-0.1,0.17,D,2026-01-10 11:43:57
1645994,12,46,100,-1.42,2.58,0.92,0.99,-0.11,0.17,D,2026-01-10 11:43:58
1646896,12,46,100,-1.25,1.62,0.63,1,-0.09,0.16,D,2026-01-10 11:43:59
1647555,13,46,100,-1.79,3.74,0.64,0.99,-0.1,0.17,D,2026-01-10 11:44:00
1648277,12,45,100,-0.87,3.74,0.64,1,-0.1,0.17,D,2026-01-10 11:44:00
1648776,13,47,100,-1.59,2.52,0.32,1,-0.1,0.17,D,2026-01-10 11:44:01
1649732,13,47,100,-0.53,2.15,2.21,0.99,-0.1,0.18,D,2026-01-10 11:44:03
1652272,13,50,100,-0.49,4.61,1.22,1.02,-0.09,0.09,D,2026-01-10 11:44:05
1653555,13,50,100,-1.34,3.54,5.91,0.99,-0.1,0.18,D,2026-01-10 11:44:05
1654018,12,48,100,-1.24,2.26,-1.1,0.99,-0.09,0.19,D,2026-01-10 11:44:06
1655127,12,47,100,0.23,-2.29,1.74,0.98,-0.13,0.22,D,2026-01-10 11:44:07
1655717,14,47,100,-3.62,-1.25,0.9,0.99,-0.14,0.16,D,2026-01-10 11:44:07
1656162,5,47,100,1.53,-0.49,0.89,0.99,-0.14,0.15,D,2026-01-10 11:44:08
1656928,5,47,100,-2.27,5.56,0.6,1,-0.1,0.15,D,2026-01-10 11:44:09
1657385,5,48,100,-0.52,2.63,3.1,0.98,-0.15,0.2,D,2026-01-10 11:44:09
1657914,5,47,100,-1.4,7.62,0.9,1,-0.11,0.15,D,2026-01-10 11:44:10
1658456,7,47,100,0.9,-3.8,0.35,1,-0.12,0.14,D,2026-01-10 11:44:10
1659081,7,46,100,-2,3.19,0.37,0.99,-0.11,0.19,D,2026-01-10 11:44:11
1659538,5,47,100,-2,2.06,1.42,0.99,-0.14,0.16,D,2026-01-10 11:44:11
1660038,6,48,100,-2.37,0.76,0.96,1,-0.11,0.15,D,2026-01-10 11:44:12
1660543,7,47,100,-0.61,0.14,0.93,1,-0.13,0.13,D,2026-01-10 11:44:12
1661470,7,52,100,-1.18,2.37,0.53,1,-0.12,0.13,D,2026-01-10 11:44:15
1663837,9,53,100,-1.39,2.85,0.6,1,-0.12,0.13,D,2026-01-10 11:44:16
1664769,9,53,100,-1.3,1.92,0.73,1,-0.13,0.13,D,2026-01-10 11:44:17
1665655,13,53,100,-1.22,1.63,1.01,0.99,-0.13,0.13,D,2026-01-10 11:44:18
1666590,13,53,100,-0.69,2.5,0.95,1,-0.13,0.12,D,2026-01-10 11:44:19
1667209,13,48,100,-1.5,2.31,0.66,1.01,-0.13,0.13,D,2026-01-10 11:44:19
1667808,13,48,100,-1.28,2.99,0.64,1,-0.13,0.13,D,2026-01-10 11:44:25
1673248,13,49,100,-1.95,2.24,0.85,1,-0.13,0.13,D,2026-01-10 11:44:25
1673695,9,46,100,-1.56,-0.67,-0.46,1,-0.14,0.11,D,2026-01-10 11:44:26
1674229,5,47,100,-2.02,2.89,0.87,1,-0.14,0.12,D,2026-01-10 11:44:26
1674730,5,48,100,-2.49,1.54,-0.6,1.01,-0.11,0.11,D,2026-01-10 11:44:26
1675286,8,51,100,-1.4,8.08,1.1,0.99,-0.14,0.18,D,2026-01-10 11:44:27
1675786,8,50,100,-1.56,2.41,1.3,1.01,-0.1,0.09,D,2026-01-10 11:44:28
1676511,8,49,100,-1.6,-0.85,-0.27,0.99,-0.13,0.13,D,2026-01-10 11:44:29
1677291,9,49,100,-1.19,1.16,0.67,0.99,-0.14,0.13,D,2026-01-10 11:44:30
1678282,10,49,100,-0.29,3.54,2.38,0.99,-0.14,0.14,D,2026-01-10 11:44:31
1679095,10,47,100,-2.41,0.12,-3.56,1.02,-0.12,0.05,D,2026-01-10 11:44:31
1679675,12,47,100,-2.17,-2.55,0.27,1,-0.12,0.13,D,2026-01-10 11:44:31
1680122,5,46,100,-0.96,1.68,1.16,1,-0.12,0.12,D,2026-01-10 11:44:32
1680623,5,51,100,-1.19,2.32,0.75,1,-0.13,0.11,D,2026-01-10 11:44:33
1681123,10,51,100,-1.07,1.62,0.72,1,-0.13,0.09,D,2026-01-10 11:44:33
1681674,4,49,100,-1.05,1.68,0.9,1,-0.13,0.11,D,2026-01-10 11:44:33
1682174,7,49,100,-1.4,2.93,0.55,1,-0.13,0.09,D,2026-01-10 11:44:34
1682687,9,49,100,-1.77,2.14,-0.05,1,-0.13,0.11,D,2026-01-10 11:44:34
1683197,2,52,100,-1.45,2.93,1.11,1,-0.12,0.11,D,2026-01-10 11:44:35
1683699,7,47,100,-1.27,1.39,-0.23,1.01,-0.14,0.09,D,2026-01-10 11:44:35
1684228,7,50,100,-1.42,2,0.4,1,-0.13,0.1,D,2026-01-10 11:44:36
1684741,10,50,100,-1.37,2.47,0.53,1,-0.13,0.1,D,2026-01-10 11:44:37
1685242,8,51,100,-8.34,-8.63,-0.08,0.98,-0.16,0.15,D,2026-01-10 11:44:37
1685842,8,51,100,-2.84,1.77,-0.82,1.04,-0.03,-0.06,D,2026-01-10 11:44:38
1686343,6,52,100,2.5,-6.7,-3.59,1.03,-0.05,-0.13,D,2026-01-10 11:44:39
1687141,6,51,100,-1.86,1.51,0.23,1.01,-0.03,-0.05,D,2026-01-10 11:44:39
1687588,7,47,100,0.34,2.82,4.12,1,-0.09,0.06,D,2026-01-10 11:44:39
1688099,5,50,100,-0.6,-2.61,0.84,1.02,-0.07,-0.01,D,2026-01-10 11:44:40
1688601,6,47,100,-2.08,4.11,-1.25,1.03,-0.05,-0.05,D,2026-01-10 11:44:41
1689455,6,46,100,-3.27,-3.13,-3.05,1.04,0,-0.07,D,2026-01-10 11:44:41
1690251,7,46,100,2.14,-0.67,3.01,1.01,-0.06,0.03,D,2026-01-10 11:44:42
1690760,11,48,100,5.65,10.66,10.64,1.02,-0.06,-0.01,D,2026-01-10 11:44:43
1691251,9,49,100,-0.21,3.05,1.63,0.99,-0.11,0.11,D,2026-01-10 11:44:43
1691775,8,51,100,0.15,3.13,0.79,1.02,-0.09,0.04,D,2026-01-10 11:44:44
1692587,10,51,100,-0.56,3.91,2.12,1.02,-0.1,0.06,D,2026-01-10 11:44:45
1693286,13,52,100,-0.73,0.58,1.19,1.01,-0.11,0.05,D,2026-01-10 11:44:45
1693736,8,50,100,-1.36,2.38,0.63,1.01,-0.1,0.08,D,2026-01-10 11:44:46
1694513,8,51,100,-0.95,5.1,1.77,1.01,-0.1,0.07,D,2026-01-10 11:44:46
1694959,8,50,100,-2.99,1.5,0.31,1,-0.11,0.12,D,2026-01-10 11:44:47
1695476,7,51,100,-3.15,1.95,-0.05,1.02,-0.09,0.03,D,2026-01-10 11:44:47
1695978,7,49,100,-1.27,2.47,0.67,1.01,-0.1,0.06,D,2026-01-10 11:44:48
1696482,7,49,100,-1.98,4.44,0.92,1.01,-0.1,0.05,D,2026-01-10 11:44:48
1696984,9,53,100,-0.27,2.02,1.73,1.01,-0.11,0.08,D,2026-01-10 11:44:49
1697522,10,55,100,-2.4,-1.34,1.15,1.01,-0.12,0.05,D,2026-01-10 11:44:49
1698036,9,51,100,-0.5,4.89,1.77,1.01,-0.12,0.08,D,2026-01-10 11:44:50
1698537,9,51,100,-1.05,4.06,1.13,1.01,-0.09,0.06,D,2026-01-10 11:44:50
1699039,7,50,100,-1.68,1.08,-0.05,1.01,-0.11,0.09,D,2026-01-10 11:44:51
1699541,8,50,100,-1.47,3.5,1.21,1,-0.13,0.1,D,2026-01-10 11:44:51
1700060,10,49,100,-1.02,2.9,1.25,0.99,-0.12,0.12,D,2026-01-10 11:44:52
1700562,9,51,100,-1.79,2.44,0.06,1.01,-0.12,0.08,D,2026-01-10 11:44:52
1701089,6,46,100,-1.13,1.73,1.48,1.01,-0.11,0.08,D,2026-01-10 11:44:53
1701619,10,53,100,-0.95,3.85,1.5,1.01,-0.1,0.09,D,2026-01-10 11:44:53
1702136,5,46,100,-1.18,1.66,1.76,1.01,-0.12,0.07,D,2026-01-10 11:44:54
1702638,7,50,100,-3.39,2.34,-0.24,1,-0.14,0.09,D,2026-01-10 11:44:55
1703139,10,50,100,-0.27,2.14,4.47,0.99,-0.13,0.11,D,2026-01-10 11:44:55
1703648,9,49,100,-1.21,3.21,0.95,1.01,-0.12,0.06,D,2026-01-10 11:44:55
1704149,6,50,100,-1.77,1.73,1.33,1.01,-0.12,0.08,D,2026-01-10 11:44:56
1704664,7,47,100,-1.59,1.24,0.26,1.02,-0.1,0.01,D,2026-01-10 11:44:56
1705166,7,50,100,-1.01,14.26,2.52,1.02,-0.09,0,D,2026-01-10 11:44:57
1705686,4,49,100,-1.88,3.28,-0.37,1,-0.13,0.12,D,2026-01-10 11:44:58
1706317,6,49,100,-0.61,3.97,0.14,1.01,-0.09,0.1,D,2026-01-10 11:44:58
1706909,11,49,100,-1.95,1.13,0.9,1,-0.11,0.09,D,2026-01-10 11:44:59
1707419,12,50,100,-0.84,2.06,1.42,1,-0.12,0.13,D,2026-01-10 11:44:59
1707927,12,50,100,-1.69,3.15,-0.32,1,-0.12,0.12,D,2026-01-10 11:45:00
1708373,9,47,100,-1.54,0.6,-0.09,1,-0.11,0.15,D,2026-01-10 11:45:01
1709016,9,47,100,-1.63,1.88,0.05,1.01,-0.1,0.11,D,2026-01-10 11:45:01
1709503,9,51,100,-2.61,2.09,0.17,1,-0.11,0.13,D,2026-01-10 11:45:02
1710130,10,51,100,-0.56,0.72,2.06,0.99,-0.13,0.14,D,2026-01-10 11:45:02
1710720,13,49,100,-1.07,1.69,0.82,1,-0.11,0.13,D,2026-01-10 11:45:03
1711246,13,49,100,-1.53,1.54,1.76,1,-0.12,0.14,D,2026-01-10 11:45:03
1711724,6,51,100,-1.13,2.44,1.4,1,-0.11,0.12,D,2026-01-10 11:45:04
1712253,8,51,100,-1.62,2,0.32,1,-0.1,0.13,D,2026-01-10 11:45:04
1712779,8,46,100,-1.33,2.6,-0.29,1,-0.12,0.12,D,2026-01-10 11:45:05
1713286,8,49,100,-1.85,2.53,0.26,1,-0.12,0.12,D,2026-01-10 11:45:05
1713905,8,49,100,-1.94,2.27,0.6,1,-0.12,0.12,D,2026-01-10 11:45:06
1714352,5,47,100,-1.42,1.74,0.55,1,-0.12,0.12,D,2026-01-10 11:45:06
1714886,5,47,100,-1.11,3.19,0.53,1,-0.12,0.12,D,2026-01-10 11:45:07
1715827,12,49,100,-1.68,2.15,0.09,1,-0.11,0.14,D,2026-01-10 11:45:08
1716274,7,49,100,-1.5,1.13,0.84,1,-0.13,0.13,D,2026-01-10 11:45:08
1716942,7,49,100,-1.4,1.92,0.7,1,-0.11,0.13,D,2026-01-10 11:45:09
1717723,7,49,100,-1.73,0.92,0.23,1,-0.12,0.1,D,2026-01-10 11:45:10
1718479,13,47,100,-1.47,1.86,0.31,1,-0.12,0.1,D,2026-01-10 11:45:11
1719342,13,47,100,-1.33,2.93,1.02,1,-0.1,0.13,D,2026-01-10 11:45:12
1720545,14,47,100,-1.11,-0.2,2.23,1,-0.11,0.16,D,2026-01-10 11:45:13
1721864,14,47,100,-2.26,3.21,0.98,1,-0.12,0.12,D,2026-01-10 11:45:15
1723608,14,51,100,-1.71,3.15,0.08,1.01,-0.12,0.11,D,2026-01-10 11:45:16
1724825,14,51,100,-2.26,0.08,0.81,1,-0.12,0.12,D,2026-01-10 11:45:17
1725601,14,51,100,-1.54,0,0.72,1,-0.11,0.13,D,2026-01-10 11:45:18
1726859,16,51,100,-1.68,2.47,-0.4,1,-0.12,0.14,D,2026-01-10 11:45:19
1727534,13,47,100,-1.37,1.56,0.55,1,-0.12,0.14,D,2026-01-10 11:45:20
1728218,11,47,100,-1.5,3.02,0.46,1,-0.12,0.14,D,2026-01-10 11:45:20
1728664,11,47,100,-1.56,2.4,0.09,1,-0.11,0.13,D,2026-01-10 11:45:21
1729640,11,47,100,-1.3,2.38,0.17,1,-0.11,0.14,D,2026-01-10 11:45:22
1731408,11,47,100,-1.56,2.99,0.18,1,-0.12,0.14,D,2026-01-10 11:45:24
1732422,12,50,100,-0.87,3.88,-0.5,0.99,-0.11,0.18,D,2026-01-10 11:45:25
1733670,12,50,100,-1.21,2.55,0.6,1,-0.12,0.14,D,2026-01-10 11:45:25
1734146,9,49,100,-1.53,2.29,0.66,1,-0.12,0.15,D,2026-01-10 11:45:26
1734792,10,49,100,-1.8,2.95,0.32,0.99,-0.11,0.16,D,2026-01-10 11:45:27
1735982,10,49,100,-0.72,1.11,1.08,0.99,-0.1,0.17,D,2026-01-10 11:45:28
1736721,10,49,100,-0.79,0.49,-1.01,1,-0.12,0.15,D,2026-01-10 11:45:29
1737201,9,51,100,-0.6,0.7,1.36,1.01,-0.11,0.12,D,2026-01-10 11:45:30
1738368,9,51,100,-1.48,3.4,0.84,0.99,-0.13,0.16,D,2026-01-10 11:45:31
1739162,17,51,100,-1.88,5.24,1.22,0.99,-0.11,0.16,D,2026-01-10 11:45:31
1739846,17,51,100,-1.4,4.2,1.54,0.99,-0.09,0.19,D,2026-01-10 11:45:32
1740934,17,51,100,-1.11,1.3,0.23,0.99,-0.1,0.19,D,2026-01-10 11:45:33
1741748,17,52,100,-1.39,2.92,-0.35,0.99,-0.12,0.18,D,2026-01-10 11:45:34
1742564,13,51,100,-1.34,4,0.41,0.99,-0.09,0.19,D,2026-01-10 11:45:34
1743383,13,51,100,-1.24,1.56,1.25,0.99,-0.11,0.18,D,2026-01-10 11:45:36
1744690,13,51,100,-0.37,2.67,0.89,0.99,-0.11,0.16,D,2026-01-10 11:45:37
1745964,18,51,100,-1.02,2.78,1.01,0.99,-0.09,0.18,D,2026-01-10 11:45:38
1746410,8,49,100,-2.17,-0.17,-1.21,1,-0.11,0.13,D,2026-01-10 11:45:38
1746992,8,49,100,-2.69,3.63,0.14,1.02,-0.05,0.1,D,2026-01-10 11:45:39
1747610,8,49,100,-1.1,2.76,1.77,1,-0.1,0.17,D,2026-01-10 11:45:39
1748111,11,51,100,-1.05,3.66,0.96,0.99,-0.11,0.17,D,2026-01-10 11:45:41
1749948,9,53,100,-1.63,5.44,-0.87,1,-0.14,0.12,D,2026-01-10 11:45:42
1750857,9,53,100,-1.27,3.42,0.84,0.99,-0.11,0.19,D,2026-01-10 11:45:43
1751302,9,51,100,-2.58,5.07,-0.31,0.99,-0.12,0.18,D,2026-01-10 11:45:43
1751802,7,51,100,-3.02,5.69,0.14,0.98,-0.13,0.22,D,2026-01-10 11:45:44
1752514,7,51,100,-1.5,-0.49,-0.93,0.98,-0.12,0.2,D,2026-01-10 11:45:44
1752959,10,51,100,-1.02,2.14,0.98,0.98,-0.12,0.23,D,2026-01-10 11:45:45
1753459,10,54,100,-1.31,1.6,-0.26,0.99,-0.14,0.18,D,2026-01-10 11:45:45
1753961,11,53,100,-1.34,0.87,0.44,0.97,-0.13,0.24,D,2026-01-10 11:45:46
1754727,11,52,100,-1.57,1.95,0.09,0.96,-0.15,0.26,D,2026-01-10 11:45:47
1755180,10,51,100,-1.42,-1.37,0.06,0.96,-0.14,0.26,D,2026-01-10 11:45:48
1756261,12,51,100,-1.11,3.88,1.34,0.98,-0.12,0.23,D,2026-01-10 11:45:48
1757194,12,51,100,-1.63,2.64,0.24,0.97,-0.12,0.23,D,2026-01-10 11:45:49
1757679,12,51,100,-1.53,-0.4,-0.24,0.97,-0.14,0.22,D,2026-01-10 11:45:50
1758640,12,51,100,-1.28,2.58,0.38,0.98,-0.11,0.22,D,2026-01-10 11:45:51
1759086,8,51,100,-2.23,0.99,-0.03,0.97,-0.14,0.22,D,2026-01-10 11:45:51
1759640,7,51,100,-0.93,-6.34,-0.46,0.98,-0.12,0.2,D,2026-01-10 11:45:54
1762755,7,51,100,-1.95,2.06,-0.05,1,-0.1,0.14,D,2026-01-10 11:45:55
1763248,10,49,100,-1.83,1.08,1.44,1,-0.11,0.15,D,2026-01-10 11:45:55
1763755,10,53,100,-1.51,2.56,0.89,1,-0.12,0.14,D,2026-01-10 11:45:56
1764262,10,54,100,-1.13,2.12,0.53,1,-0.11,0.14,D,2026-01-10 11:45:56
1764862,9,54,100,-1.07,1.4,0.49,1,-0.12,0.14,D,2026-01-10 11:45:57
1765314,7,50,100,-1.33,1.44,1.01,0.99,-0.12,0.15,D,2026-01-10 11:45:57
1765816,7,51,100,-1.83,0.87,-0.4,0.99,-0.12,0.13,D,2026-01-10 11:45:58
1766444,8,51,100,-1.44,1.8,0.79,1,-0.13,0.12,D,2026-01-10 11:45:58
1766921,11,52,100,-1.79,3.36,0.63,1,-0.11,0.13,D,2026-01-10 11:45:59
1767578,14,50,100,-1.25,2.98,-0.46,1.01,-0.11,0.13,D,2026-01-10 11:45:59
1768054,8,51,100,-0.87,0.7,1.71,1,-0.11,0.11,D,2026-01-10 11:46:00
1768704,11,51,100,-1.82,2.78,0.58,1,-0.12,0.11,D,2026-01-10 11:46:01
1769150,9,51,100,-1.66,4.23,0.56,1.01,-0.1,0.1,D,2026-01-10 11:46:01
1769706,7,51,100,-0.98,2.49,0.78,1,-0.13,0.12,D,2026-01-10 11:46:01
1770206,7,54,100,-0.93,3.27,-0.63,1,-0.11,0.14,D,2026-01-10 11:46:02
1770966,8,54,100,-1.25,2.11,0.37,1,-0.13,0.12,D,2026-01-10 11:46:03
1771438,8,51,100,-2.15,2.98,0.55,1,-0.13,0.13,D,2026-01-10 11:46:03
1771966,11,53,100,-1.6,0.52,1.11,1,-0.13,0.12,D,2026-01-10 11:46:04
1772465,10,53,100,-1.16,2.69,0.5,1,-0.13,0.12,D,2026-01-10 11:46:04
1772966,9,53,100,-2.09,4.44,0.4,1,-0.12,0.12,D,2026-01-10 11:46:05
1773470,11,52,100,-1.28,2.6,0.61,1,-0.12,0.12,D,2026-01-10 11:46:05
1773971,9,50,100,-1.18,1.05,0.81,1,-0.12,0.12,D,2026-01-10 11:46:06
1774501,9,50,100,-1.15,1.57,0.67,1,-0.12,0.12,D,2026-01-10 11:46:06
1775132,12,51,100,-1.34,2.15,-0.09,1,-0.13,0.12,D,2026-01-10 11:46:08
1776245,12,49,100,-0.9,1.13,0,1,-0.13,0.11,D,2026-01-10 11:46:09
1777085,12,51,100,-1.21,3.3,0.15,1,-0.12,0.1,D,2026-01-10 11:46:09
1777683,12,51,100,-1.73,3.83,-0.17,1,-0.11,0.13,D,2026-01-10 11:46:09
1778128,9,51,100,-1.18,0.26,1.22,0.98,-0.14,0.12,D,2026-01-10 11:46:10
1778690,9,53,100,-2.78,2.37,0.47,1.01,-0.09,0.12,D,2026-01-10 11:46:10
1779137,9,52,100,-0.96,2.9,1.45,0.99,-0.13,0.13,D,2026-01-10 11:46:11
1779724,9,50,100,-1.18,3.27,1.02,1,-0.11,0.08,D,2026-01-10 11:46:12
1780257,9,52,100,-1.83,1.91,-0.15,0.99,-0.13,0.11,D,2026-01-10 11:46:12
1780722,11,46,100,-1.27,1.53,0,1.01,-0.09,0.08,D,2026-01-10 11:46:13
1781253,7,51,100,-0.82,3.02,1.11,1.01,-0.1,0.09,D,2026-01-10 11:46:14
1782304,11,51,100,-0.79,2.47,1.11,1.01,-0.09,0.12,D,2026-01-10 11:46:14
1782749,13,52,100,-1.3,0.31,0.47,1,-0.11,0.12,D,2026-01-10 11:46:15
1783249,11,53,100,-1.36,2.5,0.12,1.01,-0.12,0.11,D,2026-01-10 11:46:15
1783751,13,51,100,-1.11,2.53,-0.67,1,-0.11,0.14,D,2026-01-10 11:46:16
1784258,9,50,100,-1.39,1.24,1.19,1,-0.11,0.11,D,2026-01-10 11:46:16
1784761,12,50,100,-1.15,2.52,0.26,1.01,-0.11,0.1,D,2026-01-10 11:46:17
1785370,12,51,100,-0.81,1.07,0.11,1,-0.11,0.12,D,2026-01-10 11:46:17
1785816,8,53,100,-1.54,-1.05,0.85,1,-0.13,0.12,D,2026-01-10 11:46:18
1786372,8,53,100,-0.9,-0.18,1.24,0.99,-0.1,0.14,D,2026-01-10 11:46:18
1786824,10,55,100,-1.39,2,-0.08,1.01,-0.09,0.09,D,2026-01-10 11:46:19
1787326,10,51,100,-1.42,1.74,1.34,1.01,-0.09,0.09,D,2026-01-10 11:46:19
1787828,8,52,100,-3.21,-0.37,2.23,0.97,-0.11,0.09,D,2026-01-10 11:46:20
1788347,8,52,100,-1.63,2.12,-0.31,1,-0.11,0.08,D,2026-01-10 11:46:20
1788852,10,49,100,-1.11,1.04,0.58,1.01,-0.1,0.08,D,2026-01-10 11:46:24
1792253,12,49,100,-0.92,1.51,0.78,1.02,-0.09,0.09,D,2026-01-10 11:46:24
1792924,12,49,100,1.08,5.24,4.26,1,-0.09,0.18,D,2026-01-10 11:46:25
1793994,12,51,100,-1.53,2.31,0.76,0.99,-0.09,0.18,D,2026-01-10 11:46:26
1794564,12,51,100,-0.81,-1.48,-0.43,0.99,-0.1,0.18,D,2026-01-10 11:46:27
1795285,12,53,100,-1.48,2.55,0.98,0.99,-0.1,0.19,D,2026-01-10 11:46:27
1796200,12,54,100,-0.5,1.51,0.84,0.99,-0.09,0.2,D,2026-01-10 11:46:28
1796675,11,50,100,-1.65,2.98,0.98,1,-0.1,0.17,D,2026-01-10 11:46:29
1797361,12,51,100,-0.96,3.95,2.02,0.99,-0.09,0.18,D,2026-01-10 11:46:29
1797894,14,52,100,-1.05,3.37,-0.63,0.99,-0.08,0.2,D,2026-01-10 11:46:30
1798380,9,52,100,-1.56,1.89,1.1,0.99,-0.09,0.17,D,2026-01-10 11:46:30
1799176,12,52,100,-1.05,3.54,1.44,0.99,-0.09,0.18,D,2026-01-10 11:46:32
1800323,12,52,100,-1.85,1.07,1.19,1,-0.09,0.13,D,2026-01-10 11:46:32
1800807,8,53,100,-0.5,2.93,1.74,1.01,-0.09,0.11,D,2026-01-10 11:46:33
1801330,11,54,100,0.98,6.43,3.15,1,-0.1,0.14,D,2026-01-10 11:46:33
1802044,11,52,100,-0.81,2.15,0.67,0.99,-0.12,0.15,D,2026-01-10 11:46:34
1802714,11,52,100,-1.57,-0.9,-0.84,1,-0.11,0.13,D,2026-01-10 11:46:35
1803267,9,52,100,-1.28,3.24,-0.14,1,-0.1,0.13,D,2026-01-10 11:46:35
1803748,10,55,100,-1.13,1.21,0.14,1,-0.11,0.13,D,2026-01-10 11:46:36
1804548,10,55,100,-1.73,3.24,0.02,1,-0.1,0.14,D,2026-01-10 11:46:37
1805414,10,54,100,-0.95,2.58,0.38,1.01,-0.1,0.12,D,2026-01-10 11:46:37
1806445,10,53,100,-1.56,-0.63,-0.06,1.01,-0.08,0.13,D,2026-01-10 11:46:39
1807068,10,50,100,-1.74,6.29,1.11,0.99,-0.11,0.15,D,2026-01-10 11:46:39
1807672,11,50,100,-2.73,3.98,-1.92,1.02,-0.08,0.09,D,2026-01-10 11:46:39
1808117,11,53,100,-2.29,0.2,0.93,1.01,-0.1,0.11,D,2026-01-10 11:46:40
1808643,14,54,100,-1.05,4.05,-0.03,1,-0.1,0.11,D,2026-01-10 11:46:41
1809186,16,52,100,-0.72,2.63,0.9,1,-0.1,0.14,D,2026-01-10 11:46:41
1809883,14,52,100,-1.95,0.47,0.06,1,-0.1,0.12,D,2026-01-10 11:46:42
1810495,13,51,100,-1.45,0.98,1.19,1.02,-0.1,0.06,D,2026-01-10 11:46:43
1811270,13,51,100,-0.37,6.24,1.91,1,-0.1,0.12,D,2026-01-10 11:46:43
1811902,12,51,100,-1.51,2.34,0.38,1.01,-0.1,0.11,D,2026-01-10 11:46:44
1812384,12,54,100,-1.36,1.88,0.56,1.01,-0.1,0.1,D,2026-01-10 11:46:44
1812922,14,55,100,-1.59,5.76,-0.34,1.01,-0.08,0.1,D,2026-01-10 11:46:45
1813446,10,53,100,-1.94,3.01,-0.32,1.02,-0.06,0.05,D,2026-01-10 11:46:45
1813948,8,57,100,-1.73,0.98,0.78,1.02,-0.05,0.07,D,2026-01-10 11:46:46
1814450,8,54,100,-1.47,1.21,0.53,1.02,-0.07,0.07,D,2026-01-10 11:46:46
1815104,10,54,100,-1.79,4.09,0.4,1.02,-0.08,0.07,D,2026-01-10 11:46:47
1816187,10,54,100,-1.18,3.69,0.17,1.01,-0.07,0.09,D,2026-01-10 11:46:48
1817099,10,53,100,-1.37,1.3,0.82,1.01,-0.07,0.08,D,2026-01-10 11:46:49
1817564,15,53,100,-1.36,3.6,0.96,1.01,-0.08,0.09,D,2026-01-10 11:46:50
1818256,13,53,100,-1.15,2.6,0.29,1.01,-0.07,0.09,D,2026-01-10 11:46:51
1819153,15,53,100,-1.45,2.18,0.63,1.01,-0.08,0.1,D,2026-01-10 11:46:51
1819701,15,53,100,-1.63,3.56,1.1,1.01,-0.08,0.09,D,2026-01-10 11:46:52
1820300,14,53,100,-1.63,1.6,-0.21,1,-0.09,0.1,D,2026-01-10 11:46:52
1820801,14,53,100,-1.76,2.11,0.12,1.01,-0.08,0.08,D,2026-01-10 11:46:53
1821304,12,55,100,-1.37,2.79,1.05,1.01,-0.08,0.08,D,2026-01-10 11:46:53
1821804,8,52,100,-1.97,3.82,0.34,1.01,-0.06,0.1,D,2026-01-10 11:46:54
1822317,11,51,100,-1.21,0.2,0.14,1.01,-0.09,0.09,D,2026-01-10 11:46:54
1823253,11,51,100,-0.73,4.08,0.53,0.99,-0.07,0.09,D,2026-01-10 11:46:55
1823856,12,54,100,-2.23,4.14,-0.14,1.01,-0.07,0.09,D,2026-01-10 11:46:56
1824797,16,55,100,-1.71,13.48,2.09,1,-0.09,0.15,D,2026-01-10 11:46:57
1825395,16,54,100,-1.62,0.41,0.73,1,-0.08,0.13,D,2026-01-10 11:46:57
1826065,16,54,100,-1.98,1.42,0.67,1,-0.07,0.17,D,2026-01-10 11:46:58
1826924,16,54,100,0.87,4.96,3.08,0.97,-0.11,0.24,D,2026-01-10 11:46:59
1827771,14,52,100,-0.75,-12.52,0.47,0.99,-0.09,0.16,D,2026-01-10 11:47:00
1828257,9,52,100,-0.98,14.2,-3.13,0.98,-0.01,0.25,D,2026-01-10 11:47:00
1828759,8,51,100,-1.18,2.21,1.82,0.99,-0.05,0.2,D,2026-01-10 11:47:01
1829488,11,51,100,-1.31,2.08,0.5,0.99,-0.06,0.21,D,2026-01-10 11:47:02
1830032,7,53,100,-2.03,3.19,0.79,0.98,-0.07,0.21,D,2026-01-10 11:47:02
1830508,13,53,100,-1.54,1.07,0.55,0.98,-0.08,0.22,D,2026-01-10 11:47:03
1831959,13,54,100,-2.27,6.92,0.96,0.99,-0.08,0.21,D,2026-01-10 11:47:04
1832765,13,54,100,-2.06,3.68,0.56,0.99,-0.06,0.18,D,2026-01-10 11:47:05
1833902,14,54,100,-0.82,1.88,1.28,0.99,-0.06,0.2,D,2026-01-10 11:47:06
1834659,14,54,100,-1.19,-0.56,0.4,0.99,-0.05,0.19,D,2026-01-10 11:47:07
1835389,14,49,100,-1.34,3.08,1.21,0.99,-0.08,0.18,D,2026-01-10 11:47:08
1836238,13,49,100,-1.48,3.39,0.82,0.99,-0.07,0.21,D,2026-01-10 11:47:09
1837228,13,50,100,-1.57,1.63,0.69,0.99,-0.06,0.18,D,2026-01-10 11:47:10
1838143,12,50,100,-2.17,-0.17,-0.64,0.99,-0.07,0.18,D,2026-01-10 11:47:10
1838828,12,50,100,-1.5,0.12,2.66,1,-0.08,0.12,D,2026-01-10 11:47:11
1839534,12,53,100,-0.78,2.26,0.24,1,-0.06,0.13,D,2026-01-10 11:47:12
1840219,15,54,100,-1.6,2.03,0.34,1,-0.07,0.12,D,2026-01-10 11:47:12
1840858,18,54,100,-1.07,1.18,0.47,1.01,-0.06,0.13,D,2026-01-10 11:47:13
1841768,18,53,100,-1.19,4.64,-0.7,1.01,-0.09,0.1,D,2026-01-10 11:47:14
1842604,18,53,100,-1.4,5.27,1.02,0.98,-0.06,0.15,D,2026-01-10 11:47:15
1843427,18,51,100,0.67,1.47,1.36,1,-0.03,0.19,D,2026-01-10 11:47:16
1844446,18,51,100,-0.98,-3.13,0.05,1,-0.05,0.14,D,2026-01-10 11:47:17
1845152,18,51,100,-1.1,4.49,2.21,0.99,-0.08,0.17,D,2026-01-10 11:47:17
1845675,15,53,100,-0.81,4.14,1.73,1,-0.08,0.13,D,2026-01-10 11:47:18
1846322,15,53,100,-2.06,0.61,-0.76,1,-0.06,0.15,D,2026-01-10 11:47:19
1847141,14,53,100,-2.49,-1.8,-4.99,0.97,0.09,0.31,D,2026-01-10 11:47:19
1847819,14,55,100,-1.74,-1.07,1.66,1,0,0.14,D,2026-01-10 11:47:20
1848958,13,53,100,-3.53,-4.23,6.58,1.02,0,0.09,D,2026-01-10 11:47:21
1849575,14,53,100,-9.77,3.79,5.05,1.03,-0.02,0.05,D,2026-01-10 11:47:22
1850099,14,54,100,2.17,6.79,2.81,1,-0.05,0.13,D,2026-01-10 11:47:22
1850555,16,53,100,-1.68,2.02,0.26,1.01,-0.04,0.13,D,2026-01-10 11:47:22
1851103,9,53,100,-0.99,2.05,0.24,1.01,-0.05,0.12,D,2026-01-10 11:47:23
1851609,14,50,100,-0.6,2.69,1.3,1,-0.07,0.13,D,2026-01-10 11:47:24
1852441,14,50,100,-0.69,-0.96,-0.96,1.01,-0.1,0.11,D,2026-01-10 11:47:24
1852957,15,53,100,-0.29,4.7,-0.11,1,-0.07,0.15,D,2026-01-10 11:47:25
1853787,15,49,100,-1.57,1.27,0.03,1,-0.08,0.12,D,2026-01-10 11:47:26
1854886,14,49,100,-1.98,-4.08,0.02,1.01,-0.07,0.09,D,2026-01-10 11:47:27
1855910,16,53,100,-1.44,2.47,0.6,1,-0.06,0.14,D,2026-01-10 11:47:28
1856923,14,53,100,-1.22,2.37,0.79,1.01,-0.07,0.11,D,2026-01-10 11:47:29
1857641,14,53,100,-1.28,3.66,0.75,1.01,-0.07,0.11,D,2026-01-10 11:47:30
1858564,14,55,100,-1.24,0.85,0.85,1.01,-0.06,0.12,D,2026-01-10 11:47:31
1859306,14,55,100,-1.13,2.05,0.78,1.01,-0.07,0.11,D,2026-01-10 11:47:31
1859981,14,55,100,-1.45,3.02,1.01,1,-0.08,0.13,D,2026-01-10 11:47:32
1860620,13,55,100,-1.73,3.02,0.5,1.02,-0.06,0.1,D,2026-01-10 11:47:33
1861569,13,51,100,-1.11,2.2,0.21,1,-0.07,0.12,D,2026-01-10 11:47:34
1862454,14,51,100,-2.78,4.81,3.02,1.01,-0.09,0.11,D,2026-01-10 11:47:34
1863089,13,52,100,-1.53,3.44,1.51,1.01,-0.04,0.13,D,2026-01-10 11:47:35
1863997,13,53,100,-1.1,3.27,0.05,1.01,-0.07,0.1,D,2026-01-10 11:47:37
1865326,15,53,100,-1.44,1.68,0.61,1.01,-0.07,0.11,D,2026-01-10 11:47:37
1865937,15,53,100,-1.37,2.37,1.18,1.01,-0.07,0.11,D,2026-01-10 11:47:38
1866552,13,52,100,-0.84,2.72,0.96,1.01,-0.06,0.11,D,2026-01-10 11:47:39
1867170,15,51,100,-1.6,2.81,0.64,1,-0.07,0.12,D,2026-01-10 11:47:39
1867944,15,51,100,-1.28,5.45,0.7,1.01,-0.06,0.1,D,2026-01-10 11:47:40
1868729,14,51,100,-1.4,1.83,-0.2,1.01,-0.06,0.13,D,2026-01-10 11:47:41
1869658,18,51,100,-1.56,0.87,0.49,0.99,-0.07,0.15,D,2026-01-10 11:47:42
1870468,18,51,100,-0.38,2.21,1.22,1,-0.07,0.15,D,2026-01-10 11:47:43
1871423,15,54,100,-1.15,2.46,0.41,1,-0.07,0.14,D,2026-01-10 11:47:43
1871935,15,55,100,-0.95,1.89,0.32,1.01,-0.07,0.13,D,2026-01-10 11:47:44
1872954,15,55,100,-1.56,2.21,0.47,1.01,-0.07,0.12,D,2026-01-10 11:47:45
1873401,13,55,100,-0.52,-0.21,0.96,1,-0.07,0.14,D,2026-01-10 11:47:45
1874148,13,55,100,-1.68,2.84,0.55,1.01,-0.05,0.14,D,2026-01-10 11:47:46
1874960,16,55,100,-1.19,-0.38,1.25,1.02,-0.06,0.09,D,2026-01-10 11:47:48
1876327,13,55,100,-1.31,3.45,0.46,1.01,-0.06,0.11,D,2026-01-10 11:47:48
1877419,15,55,100,-1.91,4.02,0.75,1.01,-0.07,0.11,D,2026-01-10 11:47:49
1877964,16,55,100,-1.73,-1.27,3.1,1.01,-0.06,0.12,D,2026-01-10 11:47:50
1878639,15,55,100,-0.93,-1.59,-1.05,1.02,-0.07,0.05,D,2026-01-10 11:47:51
1879554,15,55,100,-0.76,2.58,0.03,1.01,-0.08,0.06,D,2026-01-10 11:47:52
1880099,15,55,100,-1.18,3.21,0.64,1.01,-0.08,0.08,D,2026-01-10 11:47:52
1880670,14,55,100,-1.37,3.19,1.13,1,-0.09,0.1,D,2026-01-10 11:47:53
1881942,14,55,100,-1.36,4.11,0.7,1.01,-0.08,0.08,D,2026-01-10 11:47:54
1882813,13,55,100,-1.88,3.22,0.47,1.02,-0.07,0.08,D,2026-01-10 11:47:55
1883561,14,55,100,-1.4,3.48,0.84,1.01,-0.09,0.08,D,2026-01-10 11:47:56
1884520,16,55,100,-1.01,2.87,1.1,1.01,-0.08,0.08,D,2026-01-10 11:47:57
1886013,16,53,100,-1.08,2.78,0.76,1,-0.08,0.1,D,2026-01-10 11:47:59
1888122,17,54,100,-1.39,2.37,1.04,1.01,-0.09,0.11,D,2026-01-10 11:48:01
1889964,17,53,100,-1.51,1.39,1.15,1,-0.09,0.11,D,2026-01-10 11:48:02
1891037,17,54,100,-1.48,3.18,0.47,1.01,-0.09,0.1,D,2026-01-10 11:48:03
1891781,17,53,100,-1.28,3.08,0.81,1.01,-0.09,0.09,D,2026-01-10 11:48:04
1892227,12,55,100,-0.84,3.66,0.46,1.01,-0.08,0.11,D,2026-01-10 11:48:04
1893102,12,54,100,-0.66,3.66,0.56,1.01,-0.08,0.13,D,2026-01-10 11:48:05
1893939,12,54,100,-1.48,3.42,0.73,0.99,-0.09,0.14,D,2026-01-10 11:48:07
1895173,11,55,100,-1.33,2.47,1.39,1,-0.09,0.15,D,2026-01-10 11:48:08
1896809,11,54,100,-0.79,4.34,1.4,1,-0.09,0.15,D,2026-01-10 11:48:09
1897327,12,54,100,-1.01,4.06,1.05,1,-0.08,0.13,D,2026-01-10 11:48:09
1898440,13,54,100,0.66,0.31,0.87,1.01,-0.06,0.13,D,2026-01-10 11:48:10
1898914,14,55,100,-1.3,2.23,1.25,1,-0.1,0.13,D,2026-01-10 11:48:11
1899462,12,55,100,-1.27,2,1.1,1.01,-0.1,0.15,D,2026-01-10 11:48:11
1900266,12,55,100,-1.51,2.61,0.06,1,-0.08,0.14,D,2026-01-10 11:48:12
1900763,14,56,100,-1.28,1.1,0.55,1,-0.1,0.13,D,2026-01-10 11:48:13
1901689,15,56,100,-1.24,3.3,0.58,1,-0.09,0.14,D,2026-01-10 11:48:14
1902526,15,55,100,-1.68,2.02,0.82,1,-0.09,0.14,D,2026-01-10 11:48:16
1904443,15,54,100,-1.85,2.17,0.38,1,-0.09,0.15,D,2026-01-10 11:48:16
1905176,16,54,100,-0.82,2.14,1.08,1,-0.09,0.13,D,2026-01-10 11:48:17
1905663,15,53,100,-1.21,2.38,1.07,1,-0.09,0.14,D,2026-01-10 11:48:17
1906185,9,54,100,-0.98,2.12,0.95,1,-0.09,0.15,D,2026-01-10 11:48:18
1906736,17,54,100,-1.27,1.98,0.82,1,-0.09,0.15,D,2026-01-10 11:48:19
1907439,17,53,100,-1.36,2.73,0.4,1,-0.09,0.13,D,2026-01-10 11:48:19
1908142,17,53,100,-1.53,2.93,0.41,1,-0.1,0.13,D,2026-01-10 11:48:20
1908961,17,54,100,-1.31,1.08,0.73,1,-0.09,0.14,D,2026-01-10 11:48:21
1909448,14,54,100,-1.62,1.86,0.63,1,-0.09,0.13,D,2026-01-10 11:48:21
1909949,11,51,100,-1.19,2.66,-0.12,1,-0.09,0.13,D,2026-01-10 11:48:22
1910450,9,54,100,-2.52,4.02,-2.02,1.01,-0.09,0.09,D,2026-01-10 11:48:23
1911144,9,54,100,-1.56,3.89,0.11,1.02,-0.08,0.1,D,2026-01-10 11:48:23
1911958,9,53,100,-2.2,-4.29,-0.73,0.98,-0.11,0.18,D,2026-01-10 11:48:24
1912858,13,51,100,-0.29,3.36,0.24,1,-0.09,0.13,D,2026-01-10 11:48:25
1913351,13,54,100,-0.95,3.91,1.62,1.01,-0.09,0.1,D,2026-01-10 11:48:25
1913878,9,53,100,-1.94,2.52,0.2,1.01,-0.08,0.12,D,2026-01-10 11:48:26
1914999,9,53,100,-1.98,2.79,1.83,1,-0.09,0.12,D,2026-01-10 11:48:27
1915444,12,52,100,-2.15,0.79,0.08,1.01,-0.08,0.12,D,2026-01-10 11:48:28
1916428,12,52,100,-1.31,3.27,0.21,1.03,-0.06,0.12,D,2026-01-10 11:48:28
1917069,15,52,100,-1.39,1.11,0.7,1.01,-0.07,0.13,D,2026-01-10 11:48:29
1917906,23,55,100,-1.27,2.73,1.42,1,-0.08,0.12,D,2026-01-10 11:48:30
1918718,5,55,100,-1.11,1.24,0.52,1,-0.09,0.13,D,2026-01-10 11:48:31
1919305,12,55,100,-1.31,2.09,1.04,1,-0.09,0.12,D,2026-01-10 11:48:31
1919791,16,55,100,-1.66,2.21,0.6,1,-0.08,0.12,D,2026-01-10 11:48:32
1920346,11,53,100,-1.18,3.6,0.35,1.02,-0.08,0.1,D,2026-01-10 11:48:32
1921040,12,54,100,-1.19,1.54,-1.57,1,-0.06,0.14,D,2026-01-10 11:48:33
1921587,12,54,100,-1.95,2.52,1.42,1,-0.05,0.13,D,2026-01-10 11:48:34
1922175,17,54,100,-1.05,-1.3,0.61,1,-0.06,0.14,D,2026-01-10 11:48:34
1922622,17,54,100,-1.57,3.15,1.21,1.01,-0.06,0.12,D,2026-01-10 11:48:35
1923548,16,55,100,-0.9,3.4,0.72,1,-0.06,0.14,D,2026-01-10 11:48:38
1927010,16,54,100,-0.52,1.3,0.35,1.01,-0.07,0.1,D,2026-01-10 11:48:39
1927523,14,54,100,-0.87,1.4,0.06,1,-0.05,0.13,D,2026-01-10 11:48:40
1928208,14,55,100,-0.92,2,0.96,1,-0.07,0.12,D,2026-01-10 11:48:40
1929371,11,55,100,-1.28,4.78,0.69,1,-0.06,0.12,D,2026-01-10 11:48:42
1930259,13,54,100,-0.78,0.73,-0.95,1.01,-0.04,0.12,D,2026-01-10 11:48:43
1931134,9,55,100,-1.89,1.48,1.1,1.01,-0.05,0.11,D,2026-01-10 11:48:44
1932634,9,55,100,-1.13,3.34,1.28,1.02,-0.06,0.11,D,2026-01-10 11:48:45
1933386,13,55,100,-1.39,2.34,0.53,1.01,-0.07,0.1,D,2026-01-10 11:48:45
1934038,13,55,100,-1.21,5.05,0.31,1.01,-0.04,0.11,D,2026-01-10 11:48:46
1934669,13,55,100,-1.85,2.37,-0.79,1.01,-0.06,0.11,D,2026-01-10 11:48:47
1935152,13,55,100,-1.11,2.64,1.33,1.01,-0.07,0.11,D,2026-01-10 11:48:47
1935730,15,50,100,-1.71,1.6,1.21,1,-0.08,0.13,D,2026-01-10 11:48:48
1936527,16,51,100,-1.71,2.41,0.72,1,-0.08,0.13,D,2026-01-10 11:48:51
1939957,16,55,100,-1.53,2.31,0.41,1.01,-0.05,0.11,D,2026-01-10 11:48:52
1940808,15,52,100,-1.62,2.49,1.04,1.02,-0.07,0.11,D,2026-01-10 11:48:53
1941621,14,52,100,-1.27,3.16,-0.27,1.02,-0.06,0.1,D,2026-01-10 11:48:54
1942357,14,52,100,-0.49,2.58,0.52,1.01,-0.06,0.11,D,2026-01-10 11:48:55
1943494,14,55,100,-1.5,4.5,0.58,1.06,-0.07,0.12,D,2026-01-10 11:48:55
1943940,11,55,100,-1.8,0.96,0.89,1,-0.06,0.12,D,2026-01-10 11:48:56
1944700,11,55,100,-1.45,1.79,0.47,0.99,-0.06,0.11,D,2026-01-10 11:48:57
1945165,13,55,100,-1.33,2.23,0.38,1.01,-0.06,0.11,D,2026-01-10 11:48:57
1945678,13,55,100,-1.65,3.62,0.64,1.01,-0.06,0.11,D,2026-01-10 11:48:58
1946400,12,55,100,-0.76,2.63,0.76,1.02,-0.06,0.12,D,2026-01-10 11:48:58
1946966,13,55,100,-1.04,3.13,0.64,1.01,-0.06,0.12,D,2026-01-10 11:48:59
1947776,18,55,100,-1.56,2.35,1.24,1,-0.05,0.14,D,2026-01-10 11:49:00
1948421,19,55,100,-1.31,2.15,0.96,1.02,-0.05,0.13,D,2026-01-10 11:49:01
1949245,18,55,100,-1.85,1.97,0.72,1,-0.06,0.13,D,2026-01-10 11:49:01
1949931,18,55,100,-1.18,1.94,0.55,1,-0.07,0.13,D,2026-01-10 11:49:02
1950787,17,55,100,-0.87,3.07,1.15,1.01,-0.05,0.14,D,2026-01-10 11:49:03
1951269,14,51,100,-1.34,2.18,0.18,1,-0.06,0.15,D,2026-01-10 11:49:03
1951817,9,55,100,-1.69,2.34,0.82,1,-0.06,0.14,D,2026-01-10 11:49:04
1952337,11,56,100,-1.45,1.69,0.52,1,-0.06,0.15,D,2026-01-10 11:49:04
1952877,8,55,100,-0.44,10.26,2.32,1,-0.06,0.18,D,2026-01-10 11:49:05
1953482,8,55,100,-1.21,0.52,0.17,0.99,-0.07,0.18,D,2026-01-10 11:49:05
1953959,18,55,100,-1.25,1.31,0.81,0.99,-0.07,0.17,D,2026-01-10 11:49:06
1954883,18,55,100,-1.39,1.4,0.61,1,-0.07,0.15,D,2026-01-10 11:49:07
1955330,11,54,100,-0.99,2.93,0.69,0.99,-0.08,0.16,D,2026-01-10 11:49:08
1956948,11,54,100,0.08,8.12,4.15,1,-0.07,0.17,D,2026-01-10 11:49:09
1958032,13,54,100,-1.33,0.89,0.7,1,-0.06,0.14,D,2026-01-10 11:49:10
1958520,13,56,100,-1.22,2.06,0.35,0.99,-0.06,0.15,D,2026-01-10 11:49:11
1959542,11,55,100,-1.77,1.92,0.52,1,-0.06,0.15,D,2026-01-10 11:49:12
1960355,11,56,100,-1.57,1.82,0,0.99,-0.07,0.15,D,2026-01-10 11:49:12
1960856,15,55,100,-1.22,2.66,0.32,1,-0.07,0.14,D,2026-01-10 11:49:13
1961301,11,56,100,-0.9,5.98,-0.05,1.01,-0.07,0.12,D,2026-01-10 11:49:13
1961998,11,55,100,-0.61,-0.49,-0.6,1,-0.05,0.15,D,2026-01-10 11:49:14
1962617,12,55,100,-2.63,4.11,1.4,0.99,-0.05,0.18,D,2026-01-10 11:49:14
1963062,10,56,100,-1.94,2.87,-0.21,1.01,-0.02,0.14,D,2026-01-10 11:49:15
1963564,8,55,100,-1.34,1.68,1.34,1,-0.04,0.17,D,2026-01-10 11:49:15
1964065,14,56,100,-1.39,3.51,-0.2,1,-0.05,0.15,D,2026-01-10 11:49:16
1964678,12,55,100,-1.31,2.9,0.66,1,-0.05,0.15,D,2026-01-10 11:49:16
1965125,11,56,100,-1.31,2.18,0.18,1,-0.04,0.15,D,2026-01-10 11:49:17
1965931,11,55,100,-1.28,1.56,1.02,1,-0.05,0.14,D,2026-01-10 11:49:18
1966456,11,55,100,-1.62,3.74,0,1,-0.04,0.15,D,2026-01-10 11:49:19
1967444,14,55,100,-1.53,2.4,0.99,1,-0.04,0.14,D,2026-01-10 11:49:19
1967972,17,55,100,-1.15,3.86,0.24,1.01,-0.04,0.13,D,2026-01-10 11:49:20
1968682,18,55,100,-1.79,0.11,-0.34,1.01,-0.04,0.13,D,2026-01-10 11:49:21
1969162,25,58,100,-1.83,1.77,0.73,1,-0.05,0.16,D,2026-01-10 11:49:21
1969677,13,56,100,-1.39,0.55,0.81,1,-0.05,0.15,D,2026-01-10 11:49:21
1970229,12,56,100,-1.3,4.11,0.79,1.01,-0.04,0.13,D,2026-01-10 11:49:22
1970729,10,55,100,-1.22,3.16,1.21,1.01,-0.03,0.13,D,2026-01-10 11:49:23
1971229,13,58,100,-1.37,2.55,0.87,1,-0.05,0.14,D,2026-01-10 11:49:23
1972057,13,55,100,-1.77,3.36,0.44,1,-0.05,0.15,D,2026-01-10 11:49:24
1972547,12,55,100,-1.83,3.28,0.63,1.01,-0.04,0.14,D,2026-01-10 11:49:25
1973220,13,55,100,-1.34,3.24,-0.24,1,-0.05,0.14,D,2026-01-10 11:49:27
1975846,15,54,100,-1.44,1.54,0.5,1,-0.04,0.14,D,2026-01-10 11:49:29
1977618,15,55,100,-1.92,3.07,0.24,1,-0.05,0.14,D,2026-01-10 11:49:30
1978214,16,55,100,-1.02,4.82,1.31,1,-0.05,0.14,D,2026-01-10 11:49:30
1979041,16,54,100,-1.31,3.31,0.64,1.01,-0.03,0.13,D,2026-01-10 11:49:32
1980549,14,54,100,-0.9,2.95,0.58,1,-0.02,0.14,D,2026-01-10 11:49:33
1981358,13,54,100,-1.04,2.02,-0.17,1.01,-0.02,0.15,D,2026-01-10 11:49:35
1983957,14,54,100,-1.54,2.09,0.7,1,-0.03,0.15,D,2026-01-10 11:49:36
1984798,14,55,100,-1.02,1.97,0.75,1.01,-0.02,0.14,D,2026-01-10 11:49:37
1985704,14,55,100,-1.19,4.18,1.74,1,-0.04,0.15,D,2026-01-10 11:49:38
1986787,16,54,100,-1.16,2.92,0.66,0.99,-0.04,0.15,D,2026-01-10 11:49:40
1988217,17,53,100,-0.95,-0.03,1.22,1,-0.02,0.15,D,2026-01-10 11:49:40
1988929,17,51,100,-0.58,2.84,1.1,1,-0.02,0.16,D,2026-01-10 11:49:41
1989536,18,51,100,-1.05,-1.83,0.03,1.01,-0.02,0.13,D,2026-01-10 11:49:42
1990464,17,53,100,-1.63,3.36,0.81,1.01,-0.02,0.12,D,2026-01-10 11:49:42
1990958,12,55,100,-1.39,3.05,0.4,1,-0.03,0.14,D,2026-01-10 11:49:43
1992051,15,55,100,-1.31,3.85,-0.35,1.01,-0.03,0.12,D,2026-01-10 11:49:44
1992924,15,55,100,-1.44,1.66,0.05,1.01,-0.01,0.14,D,2026-01-10 11:49:45
1993875,15,55,100,-1.05,3.18,0.96,1.01,-0.03,0.14,D,2026-01-10 11:49:46
1994759,15,55,100,-1.3,2.27,0.56,1,-0.03,0.14,D,2026-01-10 11:49:48
1996297,15,55,100,-1.33,3.54,0.47,1,-0.02,0.13,D,2026-01-10 11:49:49
1997214,16,55,100,-1.3,2.31,0.44,1.01,-0.02,0.12,D,2026-01-10 11:49:50
1998146,17,55,100,-1.5,2.27,0.69,1,-0.03,0.13,D,2026-01-10 11:49:50
1998663,17,55,100,-0.98,1.02,0.93,1.01,-0.03,0.11,D,2026-01-10 11:49:51
1999350,17,55,100,-1.27,2.03,0.76,1.01,-0.02,0.11,D,2026-01-10 11:49:52
2000141,17,55,100,-1.57,2.29,0.58,1.02,-0.03,0.1,D,2026-01-10 11:49:52
2000588,12,56,100,-0.64,1.94,1.1,1,-0.05,0.13,D,2026-01-10 11:49:53
2001180,12,56,100,-0.9,0.67,1.01,1.01,0,0.09,D,2026-01-10 11:49:53
2001650,13,54,100,-1.31,2.43,0.73,1.02,-0.01,0.07,D,2026-01-10 11:49:54
2002347,13,53,100,-1.5,1.8,0.43,1.01,-0.01,0.07,D,2026-01-10 11:49:54
2003011,13,53,100,-1.15,2.29,0.55,1.02,-0.02,0.06,D,2026-01-10 11:49:55
2003456,9,54,100,-0.66,1.39,0.55,1.02,-0.02,0.06,D,2026-01-10 11:49:56
2004348,9,53,100,-0.75,5.47,1.89,1.02,0,0.1,D,2026-01-10 11:49:56
2005110,9,52,100,-1.44,0.56,0.5,1.03,0,0.06,D,2026-01-10 11:49:57
2006032,14,52,100,-0.76,1.05,0.2,1.03,-0.02,0.07,D,2026-01-10 11:49:58
2006944,16,52,100,-1.34,2.66,0.63,1.02,-0.02,0.07,D,2026-01-10 11:49:59
2008170,16,55,100,-1.19,1.22,0.96,1.02,-0.02,0.04,D,2026-01-10 11:50:01
2010057,14,55,100,-1.53,2.14,0.35,1.02,-0.02,0.06,D,2026-01-10 11:50:03
2011722,13,55,100,-0.89,5.51,1.45,1.01,-0.01,0.06,D,2026-01-10 11:50:05
2014161,13,55,100,-1.11,5.63,1.02,1.02,-0.02,0.06,D,2026-01-10 11:50:06
2014662,16,55,100,-1.63,1.3,0.37,1.03,0,0.03,D,2026-01-10 11:50:07
2015451,16,55,100,-1.73,4.47,0.85,1.02,0,0.05,D,2026-01-10 11:50:07
2016167,17,55,100,-1.21,3.07,1.05,1.02,-0.01,0.07,D,2026-01-10 11:50:09
2018360,17,56,100,-1.66,2.27,0.52,1.01,-0.01,0.07,D,2026-01-10 11:50:10
