timestamp,flex_thumb,flex_index,flex_middle,gyro_x,gyro_y,gyro_z,accel_x,accel_y,accel_z,label,datetime
397971,83,100,100,-0.9,1.97,0.95,1,0.2,0.06,A,2026-01-10 09:34:06
398471,75,100,100,-0.96,1.19,1.66,1,0.2,0.05,A,2026-01-10 09:34:07
398973,95,100,100,0,-2.67,0.24,1.01,0.21,0.04,A,2026-01-10 09:34:07
399474,100,100,100,2.08,-5.19,-1.85,1.02,0.19,0.03,A,2026-01-10 09:34:07
400006,86,100,100,-1.91,1.63,1.15,1,0.19,0.01,A,2026-01-10 09:34:08
400526,83,100,100,-0.14,0.81,2.6,1.01,0.18,0,A,2026-01-10 09:34:08
401044,85,100,100,-1.8,2.93,1.05,1.01,0.16,-0.01,A,2026-01-10 09:34:09
401544,89,100,100,-1.16,2.67,0.11,1.01,0.17,0,A,2026-01-10 09:34:09
402055,89,100,100,-1.88,1.71,1.45,1.01,0.17,-0.01,A,2026-01-10 09:34:10
402565,83,100,100,-2.06,-0.29,5.16,1.01,0.17,0,A,2026-01-10 09:34:11
403070,93,100,100,-1.66,5.27,3.02,1.01,0.16,-0.04,A,2026-01-10 09:34:11
403580,90,100,100,-16.17,-4.82,10.21,1.02,0,-0.1,A,2026-01-10 09:34:12
404098,97,100,100,-0.75,3.74,0.38,1.02,0.08,-0.06,A,2026-01-10 09:34:12
404620,96,100,100,0.49,-2.12,3.82,1.03,0.01,-0.07,A,2026-01-10 09:34:13
405133,98,100,100,-3.66,3.15,0.92,1.02,0.07,-0.06,A,2026-01-10 09:34:13
405643,90,100,100,-2.17,1.82,2.66,1.02,0.06,-0.05,A,2026-01-10 09:34:14
406149,98,100,100,-0.9,1.02,0.56,1.03,0.05,-0.07,A,2026-01-10 09:34:14
406660,96,100,100,-0.37,1.44,1.15,1.02,0.05,-0.07,A,2026-01-10 09:34:15
407184,83,100,100,-0.9,1.86,0.47,1.02,0.06,-0.05,A,2026-01-10 09:34:15
407685,97,100,100,-1.27,1.59,0.84,1.03,0.05,-0.07,A,2026-01-10 09:34:16
408200,93,100,100,-1.48,2.61,0.34,1.02,0.05,-0.07,A,2026-01-10 09:34:16
408711,98,100,100,-1.51,2.64,0.61,1.03,0.06,-0.07,A,2026-01-10 09:34:17
409231,98,100,100,-1.92,2.27,1.39,1.02,0.06,-0.07,A,2026-01-10 09:34:18
409919,98,100,100,-1.82,1.85,1.04,1.02,0.05,-0.07,A,2026-01-10 09:34:18
410364,96,100,100,-2.29,2.98,0.17,1.02,0.06,-0.07,A,2026-01-10 09:34:19
411147,96,100,100,-1.53,3.79,-0.99,1.02,0.05,-0.08,A,2026-01-10 09:34:19
411601,98,100,100,-2.34,4.72,-0.47,1.02,0.06,-0.07,A,2026-01-10 09:34:20
412117,98,100,100,-1.68,2.61,0.63,1.02,0.05,-0.07,A,2026-01-10 09:34:20
412617,98,100,100,-1.74,2.5,0.32,1.02,0.05,-0.08,A,2026-01-10 09:34:21
413219,97,100,100,-1.25,2.2,0.63,1.02,0.05,-0.07,A,2026-01-10 09:34:21
413664,94,100,100,-1.15,1.86,0.81,1.02,0.05,-0.08,A,2026-01-10 09:34:22
414166,89,100,100,-1.21,2.53,0.06,1.02,0.05,-0.08,A,2026-01-10 09:34:22
414667,92,100,100,-1.48,2.85,0.2,1.03,0.06,-0.08,A,2026-01-10 09:34:23
415169,93,100,100,-1.69,2.21,1.18,1.02,0.06,-0.08,A,2026-01-10 09:34:23
415691,98,100,100,-1.47,2,1.39,1.02,0.06,-0.08,A,2026-01-10 09:34:24
416191,89,100,100,-1.57,3.02,0.37,1.02,0.05,-0.09,A,2026-01-10 09:34:25
416795,93,100,100,-1.5,2.55,0.63,1.02,0.05,-0.08,A,2026-01-10 09:34:25
417260,100,100,100,-1.62,2.4,0.75,1.02,0.05,-0.08,A,2026-01-10 09:34:25
417760,100,100,100,-1.53,2.41,0.7,1.02,0.05,-0.08,A,2026-01-10 09:34:26
418262,98,100,100,-1.71,2.5,0.84,1.02,0.04,-0.08,A,2026-01-10 09:34:26
418764,97,100,100,-1.66,2.52,0.61,1.02,0.04,-0.08,A,2026-01-10 09:34:27
419265,98,100,100,-1.92,2.99,0.35,1.02,0.05,-0.08,A,2026-01-10 09:34:27
419765,97,100,100,-1.62,2.85,0.26,1.02,0.05,-0.09,A,2026-01-10 09:34:28
420277,100,100,100,-1.76,2.2,0.84,1.02,0.06,-0.08,A,2026-01-10 09:34:28
420796,86,100,100,-0.82,1.85,0.15,1.02,0.05,-0.09,A,2026-01-10 09:34:29
421305,98,100,100,-1.88,2.47,0.4,1.03,0.05,-0.09,A,2026-01-10 09:34:29
421818,100,100,100,-1.63,1.79,1.3,1.02,0.05,-0.09,A,2026-01-10 09:34:30
422330,99,100,100,-0.92,2.14,0.72,1.02,0.04,-0.1,A,2026-01-10 09:34:30
422840,100,100,100,-1.22,2.27,0.47,1.02,0.05,-0.09,A,2026-01-10 09:34:31
423362,98,100,100,-0.84,2,0.27,1.03,0.05,-0.1,A,2026-01-10 09:34:31
423864,94,100,100,-1.37,3.01,-0.12,1.02,0.04,-0.1,A,2026-01-10 09:34:32
424384,94,100,100,-2.21,2.52,0.61,1.02,0.05,-0.09,A,2026-01-10 09:34:33
424898,94,100,100,-1.66,2.18,1.3,1.02,0.04,-0.1,A,2026-01-10 09:34:33
425433,100,100,100,-1.11,1.66,0.61,1.02,0.05,-0.1,A,2026-01-10 09:34:34
425934,98,100,100,-1.3,2.99,-0.31,1.02,0.05,-0.1,A,2026-01-10 09:34:34
426436,92,100,100,-1.5,3.3,-0.35,1.02,0.04,-0.1,A,2026-01-10 09:34:35
426946,84,100,100,-1.22,1.66,1.39,1.02,0.05,-0.1,A,2026-01-10 09:34:35
427448,99,100,100,-1.56,2.43,0.75,1.02,0.05,-0.09,A,2026-01-10 09:34:36
427960,98,100,100,-1.71,2.09,0.47,1.02,0.05,-0.09,A,2026-01-10 09:34:36
428471,93,100,100,-1.85,2.49,0.56,1.02,0.05,-0.09,A,2026-01-10 09:34:36
429025,94,100,100,-1.33,1.94,0.82,1.02,0.04,-0.1,A,2026-01-10 09:34:37
429682,94,100,100,-1.27,1.69,1.18,1.02,0.05,-0.09,A,2026-01-10 09:34:38
430197,94,100,100,-1.65,3.22,0.49,1.02,0.05,-0.1,A,2026-01-10 09:34:38
430660,98,100,100,-2.35,1.86,2.2,1.03,0.04,-0.1,A,2026-01-10 09:34:39
431160,87,100,100,-1.05,0.08,2.75,1.02,0.02,-0.11,A,2026-01-10 09:34:39
431663,93,100,100,-1.25,1.8,1.22,1.03,0.02,-0.11,A,2026-01-10 09:34:40
432169,93,100,100,-0.17,2.4,-0.02,1.02,0.02,-0.12,A,2026-01-10 09:34:40
432671,100,100,100,-1.21,5.89,1.44,1.03,0.04,-0.11,A,2026-01-10 09:34:41
433194,97,100,100,-1.45,3.02,0.26,1.02,0.03,-0.11,A,2026-01-10 09:34:41
433696,95,100,100,-2.17,2.72,0.85,1.02,0.03,-0.11,A,2026-01-10 09:34:42
434205,96,100,100,-1.69,2.38,1.19,1.03,0.03,-0.11,A,2026-01-10 09:34:42
434718,97,100,100,-1.76,3.47,0.7,1.02,0.02,-0.11,A,2026-01-10 09:34:43
435219,96,100,100,-1.47,2.44,0.31,1.02,0.03,-0.12,A,2026-01-10 09:34:43
435743,96,100,100,-1.76,2.32,0.73,1.02,0.02,-0.11,A,2026-01-10 09:34:44
436256,94,100,100,-1.25,3.97,-0.03,1.02,0.02,-0.11,A,2026-01-10 09:34:45
436777,96,100,100,-1.37,1.36,1.5,1.02,0.03,-0.1,A,2026-01-10 09:34:45
437276,94,100,100,-1.82,2.35,0.85,1.02,0.04,-0.1,A,2026-01-10 09:34:45
437776,97,100,100,-1.01,1.86,1.01,1.02,0.04,-0.1,A,2026-01-10 09:34:46
438304,94,100,100,-1.59,2.15,0.95,1.02,0.03,-0.09,A,2026-01-10 09:34:47
438825,83,100,100,-1.59,2.24,0.92,1.02,0.03,-0.09,A,2026-01-10 09:34:47
439326,95,100,100,-1.42,2.46,0.61,1.02,0.03,-0.1,A,2026-01-10 09:34:48
439850,93,100,100,-0.82,2.35,0.47,1.02,0.02,-0.11,A,2026-01-10 09:34:48
440354,93,100,100,-1.11,3.77,-0.72,1.02,0.03,-0.12,A,2026-01-10 09:34:49
440873,88,100,100,-1.79,2.44,0.53,1.02,0.04,-0.08,A,2026-01-10 09:34:49
441374,100,100,100,-2.99,3.18,0.6,1.03,0.06,-0.06,A,2026-01-10 09:34:50
441891,100,100,100,-1.39,1.89,1.02,1.02,0.03,-0.08,A,2026-01-10 09:34:50
442391,98,100,100,1.15,-2.37,3.97,1.02,0.01,-0.1,A,2026-01-10 09:34:50
442915,88,100,100,-2.84,4.66,-0.37,1.02,0.01,-0.1,A,2026-01-10 09:34:51
443415,100,100,100,-1.92,2.66,0.87,1.03,0.02,-0.09,A,2026-01-10 09:34:51
443934,97,100,100,-1.77,2.17,0.75,1.03,0.02,-0.1,A,2026-01-10 09:34:52
444445,92,100,100,-0.87,3.19,-1.24,1.02,0.04,-0.09,A,2026-01-10 09:34:53
444959,90,100,100,-1.5,2.32,1.07,1.02,0.03,-0.1,A,2026-01-10 09:34:53
445466,97,100,100,-1.54,1.82,1.11,1.02,0.03,-0.1,A,2026-01-10 09:34:53
445981,92,100,100,-2.47,1.68,1.51,1.02,0.02,-0.11,A,2026-01-10 09:34:54
446480,94,100,100,-1.22,1.45,1.25,1.02,0.01,-0.12,A,2026-01-10 09:34:54
447014,98,100,100,-1.8,2.53,1.16,1.02,0.01,-0.12,A,2026-01-10 09:34:55
447638,95,100,100,-1.65,2.06,1.05,1.02,0.01,-0.11,A,2026-01-10 09:34:56
448131,96,100,100,-1.76,2.31,0.93,1.02,0.01,-0.12,A,2026-01-10 09:34:56
448655,99,100,100,-1.45,2.43,0.78,1.02,0,-0.12,A,2026-01-10 09:34:57
449168,93,100,100,-1.48,2.41,0.41,1.02,0.01,-0.12,A,2026-01-10 09:34:57
449674,99,100,100,-1.51,2.27,0.79,1.02,0.01,-0.12,A,2026-01-10 09:34:58
450174,95,100,100,-1.59,2.26,0.78,1.02,0.01,-0.13,A,2026-01-10 09:34:58
450701,93,100,100,-1.34,2.38,0.53,1.02,0,-0.12,A,2026-01-10 09:34:59
451207,98,100,100,-3.62,4.85,0.05,1.02,0.01,-0.12,A,2026-01-10 09:34:59
451718,92,100,100,-3.45,1.22,2.63,1.02,0,-0.12,A,2026-01-10 09:35:00
452238,98,100,100,-4.82,3.22,0.44,1.02,-0.01,-0.11,A,2026-01-10 09:35:00
452745,92,100,100,-0.85,2.64,0.17,1.02,0.02,-0.12,A,2026-01-10 09:35:01
453251,90,100,100,-1.73,2.44,0.35,1.01,0.01,-0.13,A,2026-01-10 09:35:01
453751,97,100,100,-1.89,5.3,-1.04,1.03,0.02,-0.08,A,2026-01-10 09:35:02
454266,93,100,100,-3.62,2.17,2.24,1.02,0.01,-0.11,A,2026-01-10 09:35:02
454787,98,100,100,-1.8,1.57,1.25,1.03,0.02,-0.08,A,2026-01-10 09:35:03
455301,94,100,100,-0.55,1.66,0.85,1.02,0.01,-0.1,A,2026-01-10 09:35:03
455801,90,100,100,-1.83,2.6,0.2,1.02,0.02,-0.09,A,2026-01-10 09:35:04
456355,94,100,100,-2.02,3.11,0.21,1.02,0.01,-0.1,A,2026-01-10 09:35:05
457069,94,100,100,-1.36,2.31,1.07,1.02,0,-0.1,A,2026-01-10 09:35:05
457540,90,100,100,-0.73,1.27,1.02,1.02,0.01,-0.1,A,2026-01-10 09:35:05
458096,88,100,100,2.02,-1.86,4.82,1.02,0,-0.11,A,2026-01-10 09:35:06
458551,95,100,100,0.85,4.24,1.02,1.01,-0.03,-0.12,A,2026-01-10 09:35:07
459087,96,100,100,-1.73,2.73,-0.27,1.02,-0.01,-0.11,A,2026-01-10 09:35:07
459604,87,100,100,-1.82,3.24,0.75,1.02,-0.01,-0.11,A,2026-01-10 09:35:08
460114,96,100,100,-0.17,1.62,0.66,1.03,-0.02,-0.11,A,2026-01-10 09:35:08
460636,94,100,100,-1.59,1.45,1.77,1.02,-0.02,-0.11,A,2026-01-10 09:35:09
461145,93,100,100,-2.23,2.87,1.24,1.02,-0.01,-0.11,A,2026-01-10 09:35:09
461645,92,100,100,-3.5,3.4,-0.67,1.03,0,-0.09,A,2026-01-10 09:35:10
462146,89,100,100,-2.84,2.9,0.6,1.03,0.01,-0.09,A,2026-01-10 09:35:10
462674,94,100,100,-3.22,4.69,0.06,1.03,0.02,-0.09,A,2026-01-10 09:35:11
463200,92,100,100,-2.14,2,0.52,1.03,0,-0.09,A,2026-01-10 09:35:11
463708,92,100,100,-1.65,2.78,0.78,1.02,-0.01,-0.12,A,2026-01-10 09:35:12
464209,91,100,100,-0.96,2.58,0.14,1.02,0,-0.11,A,2026-01-10 09:35:12
464719,89,100,100,-1.22,2.27,0.84,1.02,-0.01,-0.11,A,2026-01-10 09:35:13
465221,93,100,100,-1.85,2.46,0.56,1.03,0.01,-0.1,A,2026-01-10 09:35:13
465748,86,100,100,-1.27,2.03,0.7,1.02,-0.02,-0.12,A,2026-01-10 09:35:14
466258,86,100,100,-1.94,3.3,0.92,1.02,-0.01,-0.11,A,2026-01-10 09:35:14
466786,88,100,100,-1.8,2.43,0.85,1.02,0,-0.12,A,2026-01-10 09:35:15
467292,88,100,100,-1.6,2.82,0.31,1.02,-0.01,-0.11,A,2026-01-10 09:35:15
467793,86,100,100,-1.69,2.87,0.58,1.03,-0.01,-0.12,A,2026-01-10 09:35:16
468294,89,100,100,-1.18,3.01,0.29,1.02,0,-0.1,A,2026-01-10 09:35:16
468823,93,100,100,-0.9,2.69,0.26,1.02,0,-0.12,A,2026-01-10 09:35:17
469325,96,100,100,-1.63,2.9,0.44,1.02,-0.01,-0.11,A,2026-01-10 09:35:17
469842,97,100,100,-1.54,2.98,-0.02,1.02,-0.01,-0.11,A,2026-01-10 09:35:18
470357,97,100,100,0.26,1.4,0.08,1.02,0.02,-0.1,A,2026-01-10 09:35:18
470857,98,100,100,2.34,1.33,1.01,1.02,-0.02,-0.13,A,2026-01-10 09:35:19
471377,89,100,100,0.12,-1.18,3.1,1.02,0,-0.1,A,2026-01-10 09:35:19
471910,93,100,100,-1.22,2.53,-0.9,1.02,0.01,-0.1,A,2026-01-10 09:35:20
472411,85,100,100,-1.6,1.83,0.92,1.02,-0.01,-0.11,A,2026-01-10 09:35:20
472912,94,100,100,-1.39,2.02,0.73,1.02,-0.01,-0.12,A,2026-01-10 09:35:21
473426,95,100,100,-1.6,2.47,0.35,1.02,-0.01,-0.12,A,2026-01-10 09:35:21
473936,88,100,100,-1.63,2.15,0.9,1.02,-0.01,-0.12,A,2026-01-10 09:35:22
474448,95,100,100,-1.42,2.5,0.67,1.02,-0.01,-0.12,A,2026-01-10 09:35:22
474964,92,100,100,-1.83,2.53,0.61,1.02,-0.01,-0.11,A,2026-01-10 09:35:23
475483,92,100,100,-1.62,3.05,0.49,1.02,-0.01,-0.12,A,2026-01-10 09:35:24
476073,82,100,100,-0.41,-0.87,2.81,1.02,-0.02,-0.13,A,2026-01-10 09:35:24
476526,94,100,100,-0.37,3.08,-0.56,1.01,-0.01,-0.15,A,2026-01-10 09:35:25
477407,92,100,100,-1.54,3.25,1.34,1.02,0.01,-0.13,A,2026-01-10 09:35:25
477854,89,100,100,-2.06,1.45,2.23,1.01,-0.02,-0.15,A,2026-01-10 09:35:26
478354,86,100,100,-0.99,1.74,1.1,1.02,0,-0.13,A,2026-01-10 09:35:26
478856,85,100,100,-1.76,2.47,0.79,1.02,0,-0.14,A,2026-01-10 09:35:27
479370,84,100,100,-1.54,2.7,0.75,1.02,-0.01,-0.14,A,2026-01-10 09:35:27
479869,90,100,100,-1.18,2.24,0.81,1.02,-0.01,-0.14,A,2026-01-10 09:35:28
480421,86,100,100,-1.57,2.21,1.59,1.02,-0.01,-0.15,A,2026-01-10 09:35:28
480961,90,100,100,-1.42,2.24,0.47,1.02,-0.02,-0.14,A,2026-01-10 09:35:29
481463,85,100,100,-1.48,2.31,0.55,1.02,-0.01,-0.13,A,2026-01-10 09:35:29
482005,88,100,100,-1.73,2.37,0.76,1.02,-0.01,-0.13,A,2026-01-10 09:35:30
482506,100,100,100,-0.98,3.02,-0.12,1.03,0,-0.12,A,2026-01-10 09:35:30
483062,100,100,100,-2.46,2.14,1.19,1.03,0.02,-0.1,A,2026-01-10 09:35:31
483570,100,100,100,-1.33,2.32,0.92,1.02,0,-0.11,A,2026-01-10 09:35:31
484026,100,100,100,-1.92,5.48,-1.69,1.02,0.02,-0.12,A,2026-01-10 09:35:32
484528,100,100,100,-2.12,3.07,0.69,1.02,0,-0.13,A,2026-01-10 09:35:32
485028,100,100,100,-1.37,2.2,0.78,1.02,0,-0.13,A,2026-01-10 09:35:33
485620,100,100,100,-1.95,2.31,1.18,1.02,0,-0.12,A,2026-01-10 09:35:34
486112,100,100,100,-1.77,2.32,0.81,1.02,-0.01,-0.13,A,2026-01-10 09:35:34
486631,100,100,100,-1.16,1.08,1.6,1.02,-0.02,-0.14,A,2026-01-10 09:35:35
487142,100,100,100,-2.12,3.85,-0.29,1.02,-0.01,-0.13,A,2026-01-10 09:35:35
487667,100,100,100,-1.6,3.1,0.87,1.02,0,-0.11,A,2026-01-10 09:35:36
488173,100,100,100,-1.01,3.33,1.28,1.02,0.01,-0.08,A,2026-01-10 09:35:36
488709,100,100,100,-1.4,1.07,2.11,1.02,0.01,-0.13,A,2026-01-10 09:35:37
489209,100,100,100,-0.75,2.41,0.21,1.02,-0.02,-0.13,A,2026-01-10 09:35:37
489709,100,100,100,-2.49,3.47,0.05,1.02,-0.01,-0.13,A,2026-01-10 09:35:38
490221,100,100,100,-1.79,2.29,0.93,1.03,0.02,-0.11,A,2026-01-10 09:35:38
490723,100,100,100,-0.52,0.17,1.01,1.01,-0.01,-0.14,A,2026-01-10 09:35:39
491225,100,100,100,-2.03,1.6,1.53,1.02,0,-0.13,A,2026-01-10 09:35:39
491749,100,100,100,-1.89,2.52,0.85,1.02,-0.01,-0.12,A,2026-01-10 09:35:40
492281,100,100,100,-3.76,4.75,-0.72,1.02,0,-0.13,A,2026-01-10 09:35:40
492836,100,100,100,-1.8,2.4,0.15,1.03,0.01,-0.14,A,2026-01-10 09:35:41
493299,100,100,100,-2.98,3.45,0.47,1.02,-0.01,-0.14,A,2026-01-10 09:35:41
493809,100,100,100,-1.36,1.08,1.33,1.01,-0.03,-0.16,A,2026-01-10 09:35:42
494326,100,100,100,-1.92,5.05,0.9,1.03,0,-0.12,A,2026-01-10 09:35:42
494826,100,100,100,-1.19,2.03,-0.2,1.01,-0.03,-0.17,A,2026-01-10 09:35:43
495326,100,100,100,-0.61,2.09,1.69,1.03,0,-0.13,A,2026-01-10 09:35:43
495826,100,100,100,-2.92,4.98,-0.02,1.02,0.01,-0.11,A,2026-01-10 09:35:44
496367,100,100,100,-3.74,5.69,-2.76,1.02,-0.02,-0.17,A,2026-01-10 09:35:45
496889,100,100,100,8.43,-7.45,4.17,1.02,-0.04,-0.15,A,2026-01-10 09:35:45
497390,100,100,100,-1.4,2.02,1.6,1.01,-0.07,-0.17,A,2026-01-10 09:35:45
497889,98,100,100,0.21,2.98,-0.08,1.01,-0.06,-0.19,A,2026-01-10 09:35:46
498416,100,100,100,-1.97,2.69,0.58,1.01,-0.06,-0.18,A,2026-01-10 09:35:47
498936,100,100,100,-1.3,0.47,2.24,1.02,-0.05,-0.16,A,2026-01-10 09:35:47
499438,95,100,100,-0.82,3.39,0.53,1.02,-0.06,-0.17,A,2026-01-10 09:35:48
499959,100,100,100,-1.66,2.9,0.58,1.02,-0.07,-0.18,A,2026-01-10 09:35:48
500464,99,100,100,-2.73,1.91,2.72,1.02,-0.05,-0.18,A,2026-01-10 09:35:48
500975,100,100,100,-4.02,7.15,-1.21,1.03,-0.02,-0.13,A,2026-01-10 09:35:49
501485,100,100,100,-2.02,6.32,-1.97,1.03,-0.06,-0.16,A,2026-01-10 09:35:50
502006,97,100,100,-1.73,3.02,0.87,1.01,-0.07,-0.18,A,2026-01-10 09:35:50
502509,97,100,100,-3.8,2.75,0.95,1.02,-0.06,-0.18,A,2026-01-10 09:35:50
503031,100,100,100,-1.42,3.76,-1.95,1.01,-0.07,-0.18,A,2026-01-10 09:35:51
503551,100,100,100,-1.86,2.43,1.65,1.02,-0.05,-0.16,A,2026-01-10 09:35:52
504249,100,100,100,-1.68,2.82,0.73,1.02,-0.07,-0.17,A,2026-01-10 09:35:52
504695,100,100,100,-1.31,0.96,1.45,1.02,-0.06,-0.16,A,2026-01-10 09:35:53
505464,100,100,100,-1.39,2.29,0.6,1.02,-0.06,-0.17,A,2026-01-10 09:35:53
505909,100,100,100,-1.25,1.21,1.56,1.02,-0.06,-0.17,A,2026-01-10 09:35:54
506410,100,100,100,-1.74,2.82,0.52,1.02,-0.06,-0.17,A,2026-01-10 09:35:55
506922,100,100,100,-1.56,2.37,0.9,1.01,-0.06,-0.17,A,2026-01-10 09:35:55
507454,99,100,100,-1.42,2.03,0.81,1.01,-0.07,-0.18,A,2026-01-10 09:35:56
507954,100,100,100,-1.37,6.17,-2.12,1.02,-0.08,-0.17,A,2026-01-10 09:35:56
508456,100,100,100,-1.37,-1.22,2.93,1.02,-0.06,-0.16,A,2026-01-10 09:35:56
508956,100,100,100,-2.06,4.41,-0.38,1.01,-0.05,-0.13,A,2026-01-10 09:35:57
509470,100,100,100,-1.82,2.96,0.55,1.02,-0.04,-0.15,A,2026-01-10 09:35:57
509985,100,100,100,-2.05,2.61,0.79,1.02,-0.04,-0.15,A,2026-01-10 09:35:58
510502,100,100,100,-1.42,1.97,0.87,1.02,-0.05,-0.15,A,2026-01-10 09:35:58
511003,100,100,100,-1.51,2.63,0.53,1.02,-0.04,-0.15,A,2026-01-10 09:35:59
511522,100,100,100,-1.47,2.7,0.84,1.02,-0.03,-0.14,A,2026-01-10 09:35:59
512035,100,100,100,-2.02,2.92,0.55,1.02,-0.04,-0.15,A,2026-01-10 09:36:00
512546,100,100,100,-0.5,0.64,1.33,1.02,-0.05,-0.17,A,2026-01-10 09:36:01
513048,100,100,100,-1.47,2.92,0.2,1.02,-0.03,-0.14,A,2026-01-10 09:36:01
513575,100,100,100,-0.85,1.63,0.73,1.02,-0.02,-0.14,A,2026-01-10 09:36:02
514080,100,100,100,-1.76,2.64,1.11,1.02,-0.02,-0.14,A,2026-01-10 09:36:02
514589,100,100,100,-1.82,2.63,0.7,1.02,-0.02,-0.14,A,2026-01-10 09:36:03
515113,100,100,100,-1.63,2.4,0.6,1.02,-0.02,-0.14,A,2026-01-10 09:36:03
515626,100,100,100,-1.5,2.47,0.61,1.02,-0.03,-0.14,A,2026-01-10 09:36:04
516155,100,100,100,-1.65,2,1.01,1.02,-0.02,-0.13,A,2026-01-10 09:36:04
516661,100,100,100,-1.18,1.83,0.92,1.02,-0.02,-0.14,A,2026-01-10 09:36:05
517163,100,100,100,-1.6,2.08,1.07,1.02,-0.02,-0.13,A,2026-01-10 09:36:05
517695,100,100,100,-1.54,2.34,0.85,1.02,-0.02,-0.14,A,2026-01-10 09:36:06
518197,100,100,100,-1.73,2.23,1.1,1.02,-0.03,-0.14,A,2026-01-10 09:36:06
518696,100,100,100,-1.74,2.31,1.04,1.02,-0.02,-0.14,A,2026-01-10 09:36:07
519211,100,100,100,-1.59,2.49,0.73,1.02,-0.03,-0.14,A,2026-01-10 09:36:07
519712,100,100,100,-1.69,2.84,0.67,1.01,-0.04,-0.15,A,2026-01-10 09:36:08
520234,100,100,100,-1.13,1.88,0.58,1.02,-0.03,-0.15,A,2026-01-10 09:36:08
520734,100,100,100,-1.3,1.66,1.18,1.02,-0.03,-0.14,A,2026-01-10 09:36:09
521250,100,100,100,-1.44,2.64,0.2,1.02,-0.02,-0.14,A,2026-01-10 09:36:10
521771,100,100,100,-1.57,2.32,0.69,1.02,-0.03,-0.14,A,2026-01-10 09:36:10
522271,100,100,100,-1.79,2.81,0.81,1.02,-0.03,-0.15,A,2026-01-10 09:36:10
522792,100,100,100,-1.77,2.35,0.79,1.02,-0.03,-0.14,A,2026-01-10 09:36:11
523301,100,100,100,-1.22,2.27,0.44,1.02,-0.03,-0.15,A,2026-01-10 09:36:11
523800,100,100,100,-3.27,2.41,0.53,1.02,-0.03,-0.14,A,2026-01-10 09:36:12
524301,100,100,100,-1.65,1.79,1.48,1.02,-0.04,-0.15,A,2026-01-10 09:36:12
524801,100,100,100,-1.6,2.12,1.5,1.01,-0.04,-0.16,A,2026-01-10 09:36:13
525354,100,100,100,-1.68,2.58,0.84,1.02,-0.03,-0.14,A,2026-01-10 09:36:13
525856,100,100,100,-1.39,1.42,2.06,1.02,-0.02,-0.15,A,2026-01-10 09:36:14
526379,100,100,100,-1.6,1.18,1.59,1.02,-0.04,-0.15,A,2026-01-10 09:36:14
526887,98,100,100,-1.57,1.56,1.1,1.02,-0.04,-0.17,A,2026-01-10 09:36:15
527401,98,100,100,-3.02,4.03,0.24,1.02,-0.03,-0.15,A,2026-01-10 09:36:16
527906,96,100,100,-2.02,-0.78,1.4,1.02,-0.02,-0.13,A,2026-01-10 09:36:16
528414,98,100,100,-0.46,2.5,0.56,1.01,-0.05,-0.17,A,2026-01-10 09:36:17
529014,94,100,100,-1.94,3.56,0.12,1.02,-0.04,-0.17,A,2026-01-10 09:36:17
529467,89,100,100,-1.44,2.14,0.66,1.02,-0.04,-0.17,A,2026-01-10 09:36:18
530241,95,100,100,-0.38,1.59,1.19,1.02,-0.04,-0.17,A,2026-01-10 09:36:18
530706,93,100,100,1.15,-2.67,-0.2,1.01,-0.06,-0.2,A,2026-01-10 09:36:19
531208,94,100,100,-1.63,4.53,0.75,1.01,-0.05,-0.2,A,2026-01-10 09:36:19
531708,97,100,100,-1.76,2.61,0.84,1.01,-0.05,-0.2,A,2026-01-10 09:36:20
532216,98,100,100,-1.19,2.08,0.93,1.01,-0.06,-0.2,A,2026-01-10 09:36:20
532739,98,100,100,-1.85,2.12,1.31,1.01,-0.06,-0.2,A,2026-01-10 09:36:21
533239,98,100,100,-1.65,2.32,0.73,1.01,-0.06,-0.2,A,2026-01-10 09:36:21
533786,95,100,100,-1.54,2.46,0.38,1.02,-0.06,-0.2,A,2026-01-10 09:36:22
534293,93,100,100,-1.11,1.73,0.96,1.01,-0.06,-0.19,A,2026-01-10 09:36:23
534793,94,100,100,-1.15,1.8,0.93,1.01,-0.07,-0.2,A,2026-01-10 09:36:23
535293,100,100,100,-1.73,2.56,0.72,1.01,-0.06,-0.2,A,2026-01-10 09:36:24
535800,100,100,100,-1.4,2.93,0.4,1.01,-0.06,-0.2,A,2026-01-10 09:36:24
536384,100,100,100,-1.53,2.89,0.15,1.01,-0.05,-0.2,A,2026-01-10 09:36:24
536830,88,100,100,-1.85,2.44,1.07,1.01,-0.06,-0.2,A,2026-01-10 09:36:25
537615,88,100,100,-1.51,2.43,0.53,1.01,-0.06,-0.21,A,2026-01-10 09:36:26
538076,98,100,100,-1.77,2.73,0.56,1.01,-0.06,-0.2,A,2026-01-10 09:36:26
538577,87,100,100,-1.37,2.53,0.41,1.01,-0.06,-0.2,A,2026-01-10 09:36:26
539078,94,100,100,-1.65,2.55,0.78,1.02,-0.05,-0.2,A,2026-01-10 09:36:27
539625,95,100,100,-1.57,1.77,1.05,1.01,-0.06,-0.19,A,2026-01-10 09:36:28
540125,88,100,100,-1.82,2.52,0.96,1.01,-0.06,-0.19,A,2026-01-10 09:36:28
540626,89,100,100,-1.73,3.16,0.29,1.01,-0.07,-0.19,A,2026-01-10 09:36:29
541127,92,100,100,-1.36,3.39,-0.41,1.01,-0.06,-0.19,A,2026-01-10 09:36:29
541684,92,100,100,-1.88,2.31,1.4,1.02,-0.05,-0.19,A,2026-01-10 09:36:30
542229,95,100,100,-1.15,1.94,0.46,1.01,-0.07,-0.21,A,2026-01-10 09:36:30
542730,90,100,100,-1.56,3.01,0.4,1.01,-0.07,-0.2,A,2026-01-10 09:36:31
543178,88,100,100,-1.91,2.02,0.9,1.02,-0.06,-0.2,A,2026-01-10 09:36:31
543684,90,100,100,-1.56,2.96,-0.29,1.01,-0.07,-0.2,A,2026-01-10 09:36:32
544184,94,100,100,-2.08,3.11,0.12,1.02,-0.04,-0.19,A,2026-01-10 09:36:32
544691,85,100,100,-1.79,2.76,0.5,1.01,-0.06,-0.21,A,2026-01-10 09:36:33
545211,96,100,100,-1.56,1.98,0.81,1.01,-0.06,-0.19,A,2026-01-10 09:36:33
545724,93,100,100,-1.53,2.4,0.75,1.01,-0.06,-0.2,A,2026-01-10 09:36:34
546238,94,100,100,-2.08,1.86,0.72,1.01,-0.06,-0.19,A,2026-01-10 09:36:35
547037,94,100,100,-1.8,3.31,0.02,1.01,-0.07,-0.2,A,2026-01-10 09:36:35
547483,86,100,100,-2.02,3.53,0.75,1.02,-0.06,-0.2,A,2026-01-10 09:36:36
548077,95,100,100,0.18,-1.51,4.15,1.01,-0.06,-0.18,A,2026-01-10 09:36:36
548522,90,100,100,-2.44,3.57,0.76,1.01,-0.05,-0.2,A,2026-01-10 09:36:37
549294,85,100,100,-1.83,3.8,0.41,1.01,-0.07,-0.2,A,2026-01-10 09:36:37
549741,79,100,100,-1.57,0.85,1.71,1.01,-0.07,-0.2,A,2026-01-10 09:36:38
550244,90,100,100,-1.59,2.14,0.84,1.01,-0.08,-0.21,A,2026-01-10 09:36:39
550930,90,100,100,-1.42,3.21,-0.43,1.01,-0.07,-0.21,A,2026-01-10 09:36:39
551376,83,100,100,-5.1,6.76,0.32,1.01,-0.08,-0.18,A,2026-01-10 09:36:39
551877,92,100,100,-1.28,2.43,0.7,1.01,-0.05,-0.19,A,2026-01-10 09:36:40
552589,90,100,100,-3.02,6.02,-2.38,1.02,-0.03,-0.17,A,2026-01-10 09:36:41
553076,93,100,100,0.09,0.69,1.98,1.02,-0.04,-0.18,A,2026-01-10 09:36:41
553576,88,100,100,-2.66,4.35,-0.95,1.02,-0.03,-0.17,A,2026-01-10 09:36:42
554076,92,100,100,-1.48,1.98,0.92,1.02,-0.03,-0.18,A,2026-01-10 09:36:42
554642,98,100,100,-0.9,0.52,2.4,1.02,-0.04,-0.18,A,2026-01-10 09:36:43
555089,99,100,100,-1.92,3.11,-0.66,1,-0.07,-0.22,A,2026-01-10 09:36:43
555590,88,100,100,-0.52,1.77,1.53,1.01,-0.07,-0.2,A,2026-01-10 09:36:43
556090,100,100,100,-1.95,3.51,0.41,1.01,-0.06,-0.19,A,2026-01-10 09:36:44
556687,100,100,100,-1.83,2.26,1.21,1.01,-0.07,-0.2,A,2026-01-10 09:36:45
557141,100,100,100,-0.34,2.31,-0.87,1.01,-0.05,-0.19,A,2026-01-10 09:36:45
557642,100,100,100,-2.47,2.98,0.17,1.02,-0.04,-0.18,A,2026-01-10 09:36:46
558142,100,100,100,-1.97,3.63,0.46,1.01,-0.05,-0.19,A,2026-01-10 09:36:47
558925,100,100,100,-1.36,1.76,1.18,1.02,-0.05,-0.18,A,2026-01-10 09:36:47
559375,100,100,100,-1.42,1.85,1.21,1.02,-0.05,-0.19,A,2026-01-10 09:36:48
560169,100,100,100,-1.47,2.4,0.37,1.02,-0.06,-0.19,A,2026-01-10 09:36:48
560668,100,100,100,-1.07,1.79,0.53,1.01,-0.06,-0.19,A,2026-01-10 09:36:49
561168,100,100,100,-2.37,4.61,-0.89,1.01,-0.07,-0.19,A,2026-01-10 09:36:49
561707,100,100,100,-1.65,3.45,-1.02,1.02,-0.05,-0.18,A,2026-01-10 09:36:50
562515,100,100,100,-1.73,2.41,0.92,1.01,-0.06,-0.2,A,2026-01-10 09:36:50
562961,100,100,100,-2.03,2.41,-0.53,1.03,-0.03,-0.16,A,2026-01-10 09:36:51
563463,100,100,100,-2.34,3.94,0.02,1.02,-0.04,-0.19,A,2026-01-10 09:36:52
563964,100,100,100,-2.15,3.36,0.08,1.01,-0.05,-0.19,A,2026-01-10 09:36:52
564466,100,100,100,-1.18,2.52,1.05,1.02,-0.05,-0.18,A,2026-01-10 09:36:53
564986,100,100,100,-2.35,3.01,-0.49,1.02,-0.05,-0.19,A,2026-01-10 09:36:53
565593,100,100,100,-2.34,3.24,-0.06,1.01,-0.05,-0.17,A,2026-01-10 09:36:54
566039,100,100,100,0.29,1.62,0.37,1.01,-0.06,-0.19,A,2026-01-10 09:36:54
566700,100,100,100,-1.57,3.5,-0.12,1.01,-0.09,-0.2,A,2026-01-10 09:36:55
567147,100,100,100,-1.62,2.31,1.68,1.02,-0.01,-0.16,A,2026-01-10 09:36:56
568055,100,100,100,-0.98,6.27,-0.21,1.03,0.02,-0.11,A,2026-01-10 09:36:56
568500,100,100,100,-2.47,1.95,3.02,1.01,-0.01,-0.12,A,2026-01-10 09:36:57
569064,100,100,100,-4.61,0.21,4.72,1.02,-0.01,-0.12,A,2026-01-10 09:36:57
569511,100,100,100,-2.82,2.47,3.16,1.01,-0.01,-0.15,A,2026-01-10 09:36:58
570012,100,100,100,-4.76,9.27,-5.24,1.02,-0.03,-0.16,A,2026-01-10 09:36:58
570517,100,100,100,-1.82,2.02,0.61,1.02,-0.03,-0.15,A,2026-01-10 09:36:58
571017,100,100,100,-0.43,2.26,0.46,1.02,-0.04,-0.14,A,2026-01-10 09:36:59
571549,100,100,100,-0.99,1.92,0.84,1.02,-0.02,-0.13,A,2026-01-10 09:37:00
572050,100,100,100,-1.05,1.82,0.7,1.02,-0.03,-0.15,A,2026-01-10 09:37:00
572550,100,100,100,-1.3,0.35,1.88,1.02,-0.03,-0.15,A,2026-01-10 09:37:00
573062,100,100,100,-2.23,-0.56,1.62,1.03,-0.03,-0.18,A,2026-01-10 09:37:01
573585,100,100,100,-1.69,2.95,0.81,1.02,-0.04,-0.18,A,2026-01-10 09:37:02
574090,100,100,100,-1.36,-0.35,1.4,1.01,-0.05,-0.19,A,2026-01-10 09:37:02
574623,100,100,100,-2.26,1.54,1.04,1.01,-0.05,-0.18,A,2026-01-10 09:37:03
575123,100,100,100,-1.53,2.05,0.6,1.02,-0.05,-0.18,A,2026-01-10 09:37:03
575627,100,100,100,-0.89,2.03,0.63,1.01,-0.05,-0.17,A,2026-01-10 09:37:04
576133,100,100,100,-2.53,2.63,1.42,1.01,-0.04,-0.18,A,2026-01-10 09:37:04
576653,100,100,100,-1.36,1.88,0.6,1.02,-0.05,-0.18,A,2026-01-10 09:37:05
577161,100,100,100,-0.18,0.52,1.79,1.02,-0.03,-0.17,A,2026-01-10 09:37:05
577676,100,100,100,-1.4,2.61,0.44,1.02,-0.04,-0.17,A,2026-01-10 09:37:06
578194,100,100,100,-2.73,2.17,1.15,1.01,-0.05,-0.18,A,2026-01-10 09:37:06
578694,100,100,100,-1.24,2.15,0.67,1.02,-0.05,-0.17,A,2026-01-10 09:37:07
579210,100,100,100,-1.53,2.23,0.73,1.02,-0.05,-0.18,A,2026-01-10 09:37:08
580061,100,100,100,1.48,3.98,-2.44,1.03,-0.02,-0.16,A,2026-01-10 09:37:08
580630,100,100,100,-0.15,3.08,-0.52,1,-0.07,-0.2,A,2026-01-10 09:37:09
581077,100,100,100,-1.8,2.06,1.51,1.01,-0.06,-0.18,A,2026-01-10 09:37:09
581666,100,100,100,-2.06,1.71,1.66,1.02,-0.04,-0.17,A,2026-01-10 09:37:10
582111,100,100,100,-1.68,3.85,-0.15,1.02,-0.04,-0.17,A,2026-01-10 09:37:10
582613,100,100,100,-1.94,3.13,0.2,1.02,-0.05,-0.17,A,2026-01-10 09:37:11
583115,100,100,100,-1.56,2.18,0.81,1.01,-0.05,-0.17,A,2026-01-10 09:37:11
583615,100,100,100,-1.51,2.64,0.76,1.02,-0.05,-0.17,A,2026-01-10 09:37:12
584120,100,100,100,-1.76,2.73,0.49,1.02,-0.05,-0.16,A,2026-01-10 09:37:12
584622,100,100,100,-1.88,2.75,0.6,1.02,-0.05,-0.17,A,2026-01-10 09:37:13
585149,100,100,100,-1.05,1.62,1.16,1.01,-0.04,-0.17,A,2026-01-10 09:37:13
585665,100,100,100,-1.54,2.44,0.44,1.01,-0.06,-0.18,A,2026-01-10 09:37:14
586186,100,100,100,-1.31,2.43,0.6,1.02,-0.05,-0.18,A,2026-01-10 09:37:14
586695,100,100,100,-1.22,2.78,0.37,1.02,-0.05,-0.17,A,2026-01-10 09:37:15
587198,100,100,100,-1.63,3.47,0,1.02,-0.05,-0.17,A,2026-01-10 09:37:16
587816,99,100,100,-1.98,1.83,1.53,1.01,-0.04,-0.16,A,2026-01-10 09:37:16
588262,100,100,100,-1.39,2.2,0.76,1.01,-0.05,-0.18,A,2026-01-10 09:37:17
588844,100,100,100,-1.33,2.52,0.75,1.01,-0.06,-0.18,A,2026-01-10 09:37:17
589309,100,100,100,-1.71,2.84,0.61,1.01,-0.06,-0.17,A,2026-01-10 09:37:18
590046,100,100,100,-1.47,2.32,0.46,1.02,-0.05,-0.18,A,2026-01-10 09:37:18
590514,100,100,100,-1.54,2.46,0.52,1.02,-0.05,-0.17,A,2026-01-10 09:37:19
591289,100,100,100,-1.37,1.97,0.92,1.01,-0.05,-0.18,A,2026-01-10 09:37:19
591736,99,100,100,-1.79,2.14,0.75,1.02,-0.05,-0.18,A,2026-01-10 09:37:20
592238,100,100,100,-1.25,2.26,0.76,1.01,-0.05,-0.17,A,2026-01-10 09:37:20
592793,100,100,100,-1.4,2.66,0.34,1.02,-0.04,-0.17,A,2026-01-10 09:37:21
593294,98,100,100,1.21,3.54,0.29,1.02,-0.04,-0.17,A,2026-01-10 09:37:22
593771,100,100,100,-1.91,3.15,1.53,1.02,-0.03,-0.18,A,2026-01-10 09:37:22
594270,100,100,100,-2.21,1.86,0.79,1,-0.05,-0.16,A,2026-01-10 09:37:23
594888,100,100,100,-5.3,-0.18,1.76,0.99,-0.11,-0.12,A,2026-01-10 09:37:23
595340,100,100,100,-9.94,2,5.6,1.01,-0.02,-0.19,A,2026-01-10 09:37:24
595841,100,100,100,-2.03,6.05,2.09,1,-0.06,-0.21,A,2026-01-10 09:37:24
596393,95,100,100,-0.84,-1.22,1.68,1.02,-0.03,-0.15,A,2026-01-10 09:37:24
596928,100,100,100,-0.61,1.71,0.52,1.01,-0.07,-0.18,A,2026-01-10 09:37:25
597737,100,100,100,-0.27,1.82,0.27,1.02,-0.06,-0.18,A,2026-01-10 09:37:26
598197,97,100,100,-1.22,3.66,-0.29,1.01,-0.04,-0.18,A,2026-01-10 09:37:27
598856,97,100,100,-2.63,1.45,2.34,1.02,-0.06,-0.19,A,2026-01-10 09:37:27
599307,97,100,100,-3.25,8.21,-3.08,1.02,-0.04,-0.17,A,2026-01-10 09:37:27
599808,94,100,100,-3.83,1.74,2.4,1.02,-0.01,-0.14,A,2026-01-10 09:37:28
600310,100,100,100,-0.63,6.26,-2.81,1.02,-0.02,-0.13,A,2026-01-10 09:37:29
600914,100,100,100,-2.08,-3.44,5.02,1.02,-0.03,-0.14,A,2026-01-10 09:37:29
601416,94,100,100,-1.97,1.11,2.44,1.02,-0.05,-0.14,A,2026-01-10 09:37:29
601941,89,100,100,-0.56,1.18,0.84,1.01,-0.06,-0.17,A,2026-01-10 09:37:30
602484,92,100,100,-1.8,2.82,0.17,1.03,-0.05,-0.16,A,2026-01-10 09:37:30
602984,86,100,100,-1.27,2.44,0.56,1.02,-0.04,-0.15,A,2026-01-10 09:37:31
603873,86,100,100,-1.53,2.09,1.59,1.02,-0.05,-0.16,A,2026-01-10 09:37:32
604505,93,100,100,-1.71,1.91,1.1,1.03,-0.05,-0.14,A,2026-01-10 09:37:33
605228,93,100,100,-1.85,2.37,0.72,1.02,-0.05,-0.13,A,2026-01-10 09:37:33
605674,93,100,100,-1.57,2.4,0.58,1.02,-0.05,-0.15,A,2026-01-10 09:37:34
606353,93,100,100,-1.68,3.88,0.14,1.02,-0.05,-0.14,A,2026-01-10 09:37:34
606800,95,100,100,-8.29,0.47,5.37,1.01,-0.07,-0.13,A,2026-01-10 09:37:35
607369,98,100,100,-1.95,3.53,0.85,1.01,-0.09,-0.17,A,2026-01-10 09:37:35
607814,91,100,100,-0.24,5.01,-1.53,1.02,-0.08,-0.19,A,2026-01-10 09:37:36
608402,96,100,100,-1.5,0.31,1.8,1.03,-0.07,-0.18,A,2026-01-10 09:37:37
608940,96,100,100,-5.83,4.87,2.5,1.02,-0.08,-0.15,A,2026-01-10 09:37:37
609390,81,100,100,-1.69,-2.93,2.17,1.01,-0.09,-0.14,A,2026-01-10 09:37:37
609932,96,100,100,-5.86,1.62,-1.92,1.01,-0.09,-0.19,A,2026-01-10 09:37:38
610637,96,100,100,-0.53,-1.95,2.96,1.01,-0.08,-0.18,A,2026-01-10 09:37:39
611083,84,100,100,-1.59,4.9,-0.05,1.01,-0.06,-0.18,A,2026-01-10 09:37:39
611584,83,100,100,-0.81,-0.99,1.34,1.01,-0.09,-0.19,A,2026-01-10 09:37:40
612087,92,100,100,-2.47,2.58,0.61,1.01,-0.08,-0.19,A,2026-01-10 09:37:40
612601,84,100,100,-2.26,1.62,1.11,1.01,-0.08,-0.19,A,2026-01-10 09:37:41
613104,84,100,100,-0.92,2.24,0.03,1.01,-0.08,-0.18,A,2026-01-10 09:37:41
613635,93,100,100,-1.74,3.18,0.56,1.01,-0.07,-0.19,A,2026-01-10 09:37:42
614134,84,100,100,-1.25,2,0.7,1.01,-0.08,-0.19,A,2026-01-10 09:37:42
614641,73,100,100,-1.18,1.85,0.41,1.01,-0.07,-0.18,A,2026-01-10 09:37:43
615141,90,100,100,-1.33,1.74,0.6,1.01,-0.07,-0.18,A,2026-01-10 09:37:43
615654,86,100,100,-1.91,1.57,1.07,1.01,-0.08,-0.19,A,2026-01-10 09:37:44
616177,88,100,100,-1.8,2.53,0.98,1.01,-0.08,-0.2,A,2026-01-10 09:37:45
617004,86,100,100,-1.33,2.21,0.21,1.01,-0.08,-0.19,A,2026-01-10 09:37:45
617451,84,100,100,0.24,1.45,0.98,1,-0.09,-0.2,A,2026-01-10 09:37:46
617952,82,100,100,-2.06,2.26,0.76,1.02,-0.07,-0.16,A,2026-01-10 09:37:46
618625,82,100,100,-1.98,3.27,0.34,1.01,-0.08,-0.19,A,2026-01-10 09:37:47
619071,86,100,100,-1.08,2.55,0.44,1.01,-0.08,-0.18,A,2026-01-10 09:37:47
619655,83,100,100,-1.8,2.6,0.78,1.02,-0.07,-0.19,A,2026-01-10 09:37:48
620255,83,100,100,-1.91,2.99,0.72,1.01,-0.07,-0.19,A,2026-01-10 09:37:48
620718,89,100,100,-1.45,1.83,0.92,1.01,-0.07,-0.18,A,2026-01-10 09:37:49
621220,97,100,100,-1.8,2.02,0.66,1.01,-0.07,-0.2,A,2026-01-10 09:37:49
621722,89,100,100,-1.1,4.21,-1.07,1.01,-0.07,-0.2,A,2026-01-10 09:37:50
622430,86,100,100,-2.27,1.21,1.66,1.02,-0.07,-0.18,A,2026-01-10 09:37:50
622875,88,100,100,-1.48,2.63,0.43,1.02,-0.06,-0.19,A,2026-01-10 09:37:51
623376,93,100,100,-1.69,1.98,0.81,1.01,-0.07,-0.18,A,2026-01-10 09:37:51
623878,95,100,100,-1.98,2.56,1.11,1.01,-0.07,-0.2,A,2026-01-10 09:37:52
624478,95,100,100,-1.33,2.6,0.58,1.01,-0.07,-0.19,A,2026-01-10 09:37:52
624937,86,100,100,-1.36,2.63,0.55,1.01,-0.07,-0.2,A,2026-01-10 09:37:53
625495,92,100,100,-2.09,2.41,1.04,1.01,-0.07,-0.19,A,2026-01-10 09:37:53
625939,92,100,100,-1.74,2.15,0.95,1.02,-0.07,-0.19,A,2026-01-10 09:37:55
626830,89,100,100,-1.37,2.32,0.47,1.01,-0.07,-0.19,A,2026-01-10 09:37:55
627275,86,100,100,-1.37,3.04,0.12,1.01,-0.07,-0.19,A,2026-01-10 09:37:55
627775,96,100,100,-0.81,1.85,0.14,1.01,-0.08,-0.18,A,2026-01-10 09:37:56
628277,86,100,100,-1.53,2.29,0.87,1.01,-0.07,-0.19,A,2026-01-10 09:37:57
628777,93,100,100,-1.56,2.06,0.79,1.01,-0.07,-0.19,A,2026-01-10 09:37:57
629333,86,100,100,-1.59,2.15,0.84,1.01,-0.06,-0.19,A,2026-01-10 09:37:58
630012,86,100,100,-0.92,2.66,-0.11,1.01,-0.07,-0.19,A,2026-01-10 09:37:58
630509,85,100,100,-1.62,1.89,1.01,1.01,-0.06,-0.18,A,2026-01-10 09:37:58
631033,86,100,100,-1.44,2.02,0.92,1.01,-0.07,-0.19,A,2026-01-10 09:37:59
631534,90,100,100,-2,2.52,0.99,1.01,-0.07,-0.19,A,2026-01-10 09:38:00
632049,89,100,100,-1.95,1.97,1.54,1.02,-0.06,-0.2,A,2026-01-10 09:38:00
632559,89,100,100,-1.73,2.85,0.66,1.02,-0.06,-0.18,A,2026-01-10 09:38:01
633074,90,100,100,-1.39,1.76,0.9,1.01,-0.07,-0.18,A,2026-01-10 09:38:01
633587,88,100,100,-6.03,0.93,3.74,1.01,-0.08,-0.18,A,2026-01-10 09:38:02
634128,84,100,100,-0.63,2.72,0.08,1.02,-0.07,-0.19,A,2026-01-10 09:38:02
634630,84,100,100,-1.5,1.8,0.89,1.01,-0.07,-0.2,A,2026-01-10 09:38:03
635131,86,100,100,-1.92,2.56,0.73,1.01,-0.07,-0.2,A,2026-01-10 09:38:04
636335,86,100,100,-1.48,2.41,0.52,1.01,-0.08,-0.2,A,2026-01-10 09:38:04
636782,85,100,100,-1.57,2.84,1.01,1.01,-0.1,-0.2,A,2026-01-10 09:38:05
637381,85,100,100,-0.98,3.36,-0.41,1.01,-0.08,-0.2,A,2026-01-10 09:38:05
637827,83,100,100,-1.74,2.29,0.75,1.01,-0.07,-0.2,A,2026-01-10 09:38:06
638399,83,100,100,-1.54,2.23,0.78,1.01,-0.08,-0.19,A,2026-01-10 09:38:06
638901,90,100,100,-1.53,1.47,0.9,1,-0.07,-0.19,A,2026-01-10 09:38:07
639617,90,100,100,-1.5,2.26,0.89,1.01,-0.07,-0.19,A,2026-01-10 09:38:08
640063,92,100,100,-1.28,2.09,0.56,1.01,-0.08,-0.2,A,2026-01-10 09:38:08
640568,96,100,100,-1.59,1.83,0.92,1.01,-0.08,-0.21,A,2026-01-10 09:38:09
641073,93,100,100,-1.37,2.52,0.44,1.01,-0.07,-0.22,A,2026-01-10 09:38:09
641572,85,100,100,-1.86,2.78,0.76,1.01,-0.08,-0.21,A,2026-01-10 09:38:09
642073,80,100,100,-1.42,2.4,0.63,1.01,-0.08,-0.21,A,2026-01-10 09:38:10
642574,74,100,100,-1.88,1.74,1.34,1.01,-0.08,-0.2,A,2026-01-10 09:38:11
643129,81,100,100,-1.91,2.11,0.93,1.02,-0.08,-0.2,A,2026-01-10 09:38:11
643622,84,100,100,-1.28,2.63,0.58,1.01,-0.07,-0.2,A,2026-01-10 09:38:12
644128,95,100,100,-1.33,2.43,0.35,1.01,-0.08,-0.2,A,2026-01-10 09:38:13
644931,90,100,100,-2,2.5,0.84,1.01,-0.08,-0.2,A,2026-01-10 09:38:13
645387,85,100,100,-1.83,1.63,1.27,1.01,-0.08,-0.2,A,2026-01-10 09:38:14
645984,90,100,100,-1.62,2.46,0.64,1.01,-0.09,-0.21,A,2026-01-10 09:38:14
646484,94,100,100,-1.33,2.29,0.35,1.01,-0.08,-0.21,A,2026-01-10 09:38:15
647000,94,100,100,-1.15,2.78,0.55,1,-0.09,-0.22,A,2026-01-10 09:38:15
647551,87,100,100,-1.92,3.16,0.31,1.01,-0.08,-0.2,A,2026-01-10 09:38:16
648051,84,100,100,-1.3,2.98,0.38,1.01,-0.07,-0.2,A,2026-01-10 09:38:16
648644,87,100,100,-1.08,2.75,0.34,1.01,-0.08,-0.23,A,2026-01-10 09:38:17
649089,83,100,100,-1.22,5.5,-1.18,1,-0.09,-0.22,A,2026-01-10 09:38:17
649590,88,100,100,-3.27,6.37,-0.64,1.01,-0.09,-0.19,A,2026-01-10 09:38:17
650092,84,100,100,-4.32,6.44,-0.06,1.01,-0.07,-0.18,A,2026-01-10 09:38:18
650592,95,100,100,3.76,4.09,-3.65,1.01,-0.07,-0.19,A,2026-01-10 09:38:19
651098,86,100,100,-0.84,1.3,0.82,1.01,-0.07,-0.18,A,2026-01-10 09:38:19
651600,85,100,100,-1.44,2.66,0.52,1.01,-0.07,-0.18,A,2026-01-10 09:38:20
652101,85,100,100,-1.48,2.67,0.44,1.01,-0.07,-0.19,A,2026-01-10 09:38:20
652601,91,100,100,-1.65,3.28,0.23,1.01,-0.06,-0.18,A,2026-01-10 09:38:21
653654,91,100,100,-1.62,2.85,0.52,1.01,-0.07,-0.19,A,2026-01-10 09:38:22
654099,93,100,100,-1.85,3.13,0.47,1.01,-0.07,-0.18,A,2026-01-10 09:38:23
654794,93,100,100,-2.64,2.52,1.39,1.02,-0.06,-0.17,A,2026-01-10 09:38:23
655295,86,100,100,-1.19,3.08,-0.05,1.01,-0.08,-0.19,A,2026-01-10 09:38:24
655889,86,100,100,-1.89,2.66,0.78,1.02,-0.07,-0.17,A,2026-01-10 09:38:24
656334,93,100,100,-1.59,2,0.82,1.01,-0.07,-0.19,A,2026-01-10 09:38:25
656840,97,100,100,-1.63,1.94,1.05,1.01,-0.07,-0.18,A,2026-01-10 09:38:25
657425,97,100,100,-1.47,2.46,0.69,1.01,-0.07,-0.17,A,2026-01-10 09:38:25
657871,90,100,100,-1.31,1.92,0.84,1.02,-0.07,-0.18,A,2026-01-10 09:38:26
658373,79,100,100,-1.3,2.21,0.61,1.01,-0.08,-0.19,A,2026-01-10 09:38:26
658878,85,100,100,-1.34,3.13,0.2,1.01,-0.08,-0.19,A,2026-01-10 09:38:27
659392,82,100,100,-1.98,1.6,1.15,1.01,-0.07,-0.19,A,2026-01-10 09:38:27
659941,83,100,100,-0.32,-1.76,2.49,1,-0.08,-0.22,A,2026-01-10 09:38:29
660908,100,100,100,-0.55,0.79,1.02,1,-0.09,-0.23,A,2026-01-10 09:38:29
661354,81,100,100,-1.53,0.9,1.56,1.01,-0.08,-0.2,A,2026-01-10 09:38:29
661854,86,100,100,-2.08,2.18,1.01,1.01,-0.07,-0.19,A,2026-01-10 09:38:30
662409,73,100,100,-1.42,2.53,0.43,1.01,-0.06,-0.18,A,2026-01-10 09:38:31
662881,79,100,100,-1.77,1.92,0.98,1.01,-0.07,-0.19,A,2026-01-10 09:38:31
663399,81,100,100,-1.59,2.81,0.55,1.01,-0.07,-0.19,A,2026-01-10 09:38:32
663909,81,100,100,-1.48,2.47,0.53,1.01,-0.07,-0.19,A,2026-01-10 09:38:32
664408,86,100,100,-1.54,2.29,0.73,1.01,-0.07,-0.19,A,2026-01-10 09:38:32
664918,85,100,100,-1.51,2.09,0.79,1.01,-0.08,-0.19,A,2026-01-10 09:38:33
665421,84,100,100,-1.82,2.31,0.92,1.02,-0.07,-0.19,A,2026-01-10 09:38:33
665944,82,100,100,-1.21,2.11,0.53,1.01,-0.07,-0.19,A,2026-01-10 09:38:34
666448,89,100,100,-1.6,2.18,0.7,1.01,-0.07,-0.18,A,2026-01-10 09:38:34
666968,82,100,100,-1.88,2.56,0.79,1.01,-0.07,-0.19,A,2026-01-10 09:38:35
667503,86,100,100,-1.4,2.32,0.6,1.01,-0.07,-0.19,A,2026-01-10 09:38:36
668092,83,100,100,-1.79,2.78,0.66,1.01,-0.07,-0.19,A,2026-01-10 09:38:36
668538,79,100,100,-1.59,2.35,0.72,1.01,-0.08,-0.2,A,2026-01-10 09:38:37
669038,88,100,100,-1.47,2.53,0.5,1.01,-0.08,-0.2,A,2026-01-10 09:38:37
669538,84,100,100,-1.42,2.02,0.81,1.01,-0.08,-0.2,A,2026-01-10 09:38:38
670150,83,100,100,-1.69,2.85,0.53,1.01,-0.08,-0.2,A,2026-01-10 09:38:38
670595,85,100,100,-1.36,2.43,0.52,1.01,-0.08,-0.2,A,2026-01-10 09:38:39
671126,86,100,100,-1.21,2.15,0.37,1.01,-0.08,-0.2,A,2026-01-10 09:38:39
671685,86,100,100,-1.8,1.79,1.18,1.01,-0.08,-0.21,A,2026-01-10 09:38:40
672176,90,100,100,-1.65,3.28,0.29,1.01,-0.07,-0.19,A,2026-01-10 09:38:41
673139,89,100,100,-1.53,2.5,0.5,1.01,-0.08,-0.2,A,2026-01-10 09:38:41
673822,86,100,100,-2.05,4.82,-0.84,1.01,-0.08,-0.2,A,2026-01-10 09:38:42
674300,98,100,100,-1.47,2.95,0.58,1.02,-0.07,-0.2,A,2026-01-10 09:38:43
674859,89,100,100,-1.69,1.92,1.25,1.01,-0.09,-0.19,A,2026-01-10 09:38:43
675360,84,100,100,-17.27,-5.25,14.96,0.98,-0.15,-0.26,A,2026-01-10 09:38:44
675878,83,100,100,-1.13,-11.25,3.94,1.03,-0.15,-0.16,A,2026-01-10 09:38:44
676349,83,100,100,-0.98,5.6,-0.87,1,-0.14,-0.21,A,2026-01-10 09:38:45
676904,84,100,100,-1.69,1.95,1.44,1,-0.15,-0.23,A,2026-01-10 09:38:45
