timestamp,flex_thumb,flex_index,flex_middle,gyro_x,gyro_y,gyro_z,accel_x,accel_y,accel_z,label,datetime
22830,82,62,55,1.22,-3.76,4.56,-0.95,0.07,0.14,L,2026-01-02 10:06:51
23287,88,63,59,-18.4,-0.63,-10.29,-0.95,0.1,0.24,L,2026-01-02 10:06:51
23789,91,58,66,0.66,-2.73,-1.44,-0.94,0.11,0.2,L,2026-01-02 10:06:52
24290,92,68,68,-1.13,2.44,1.68,-0.94,0.07,0.25,L,2026-01-02 10:06:52
24841,90,54,70,0.41,1.63,-0.29,-0.94,0.07,0.23,L,2026-01-02 10:06:53
25391,84,48,60,3.05,4.44,6.34,-0.95,0.06,0.21,L,2026-01-02 10:06:54
25910,82,48,57,0.29,-2.82,1.39,-0.95,0.13,0.23,L,2026-01-02 10:06:54
26428,87,52,58,-5.18,6.49,2.55,-0.93,0.15,0.24,L,2026-01-02 10:06:55
26936,87,45,58,4.29,12.69,9.88,-0.94,0.16,0.19,L,2026-01-02 10:06:55
27446,91,59,69,-16,-22.56,2.11,-0.97,0.16,0.28,L,2026-01-02 10:06:56
27948,84,58,62,-4.12,-1.42,0.46,-0.9,0.19,0.25,L,2026-01-02 10:06:56
28466,83,58,57,-5.02,0.96,-1.13,-0.89,0.14,0.29,L,2026-01-02 10:06:57
28977,86,63,62,-2.64,-4.12,-1.16,-0.87,0.15,0.29,L,2026-01-02 10:06:57
29527,88,62,65,-8.38,-20.43,-14.02,-0.9,0.12,0.28,L,2026-01-02 10:06:58
30029,89,58,61,4.78,-8.09,3.51,-0.93,0.16,0.29,L,2026-01-02 10:06:58
30530,85,52,65,4.63,-11.24,18.27,-0.94,0.2,0.33,L,2026-01-02 10:06:59
31085,86,65,63,-6.7,2.55,3.79,-0.89,0.2,0.34,L,2026-01-02 10:06:59
31533,73,55,59,6.92,3.47,9.85,-0.91,0.11,0.25,L,2026-01-02 10:07:00
32087,81,55,59,-9.48,1.31,0.26,-0.88,0.17,0.36,L,2026-01-02 10:07:00
32589,82,58,57,-11.31,9.11,-3.11,-0.89,0.23,0.34,L,2026-01-02 10:07:01
33089,82,56,57,0.58,2.05,-27.94,-0.91,0.15,0.31,L,2026-01-02 10:07:01
33589,83,58,58,1.69,-1.19,5.91,-0.94,0.12,0.3,L,2026-01-02 10:07:02
34101,83,59,60,-3.69,-0.98,4.31,-0.92,0.16,0.26,L,2026-01-02 10:07:02
34613,80,49,52,22.84,4.78,2.82,-0.97,0.18,0.13,L,2026-01-02 10:07:03
35126,85,69,61,-25.6,29.25,-22.14,-0.94,0.1,0.22,L,2026-01-02 10:07:03
35629,84,65,70,8.09,-14.15,15.42,-0.9,0,0.2,L,2026-01-02 10:07:04
36146,82,69,70,12.67,-1.44,3.65,-0.94,0.12,0.15,L,2026-01-02 10:07:04
36659,82,66,58,8.14,12.02,-7.79,-0.92,0.19,0.27,L,2026-01-02 10:07:05
37160,84,68,68,-14.58,-7.92,7.48,-0.93,0.16,0.23,L,2026-01-02 10:07:05
37715,83,69,70,2.99,-2.75,-24.56,-0.94,0.01,0.21,L,2026-01-02 10:07:06
38193,85,63,61,26.92,6.32,6.34,-0.95,0.15,0.28,L,2026-01-02 10:07:06
38713,82,65,52,13.85,-93.44,-0.58,-0.82,0.1,0.44,L,2026-01-02 10:07:07
39226,85,66,59,-6.9,-1.25,-1.74,-0.93,0.06,0.3,L,2026-01-02 10:07:07
39737,80,65,63,-4.38,-1.82,8.72,-0.94,0.02,0.33,L,2026-01-02 10:07:08
40247,82,63,62,-7.19,10.92,-5.56,-0.89,0.06,0.29,L,2026-01-02 10:07:08
40757,83,72,60,-0.32,8.23,2.14,-0.91,0.11,0.32,L,2026-01-02 10:07:09
41259,93,75,54,-4.61,-0.73,2.95,-0.94,0.09,0.22,L,2026-01-02 10:07:09
41815,95,69,75,-1.68,1.98,-4.34,-0.92,0.03,0.25,L,2026-01-02 10:07:10
42297,92,62,62,3.45,4.66,-1.15,-0.91,0.05,0.21,L,2026-01-02 10:07:10
42799,92,68,61,-1.65,7.59,1.16,-0.93,0.02,0.28,L,2026-01-02 10:07:11
43314,95,63,60,1.34,2.55,-0.02,-0.93,0.07,0.26,L,2026-01-02 10:07:11
43815,97,70,66,4.29,0.11,4.35,-0.94,0.01,0.21,L,2026-01-02 10:07:12
44336,96,69,66,2.49,11.45,6.37,-0.93,0.11,0.21,L,2026-01-02 10:07:13
44854,73,56,60,-1.63,17.25,7.01,-0.97,0.16,0.12,L,2026-01-02 10:07:13
45367,42,45,39,-8.32,1.86,-5.07,-0.92,0.14,0.07,L,2026-01-02 10:07:13
45866,50,52,43,-13.97,-0.6,-4.78,-0.98,0.16,0.12,L,2026-01-02 10:07:14
46418,55,51,41,-2.55,-0.89,-0.34,-0.98,0.12,0.12,L,2026-01-02 10:07:15
46918,51,49,41,-0.21,3.08,0.81,-0.96,0.11,0.07,L,2026-01-02 10:07:15
47419,54,52,43,-1.54,-1.77,-1.77,-0.98,0.06,0.1,L,2026-01-02 10:07:16
47926,51,39,41,-2.52,-3.47,-8.52,-0.99,0.05,0.04,L,2026-01-02 10:07:16
48433,47,62,43,-1.82,1.54,0.27,-0.94,0.07,0.12,L,2026-01-02 10:07:17
48947,53,49,42,-3.18,-2.98,-6.66,-0.98,0.05,0.11,L,2026-01-02 10:07:17
49457,49,51,41,-3.07,5.98,-3.11,-0.97,0.05,0.21,L,2026-01-02 10:07:18
49976,53,49,44,-4.24,-2.87,-1.42,-0.96,0.01,0.15,L,2026-01-02 10:07:18
50487,48,48,44,-1.02,7.69,3.86,-0.97,0,0.16,L,2026-01-02 10:07:19
50996,66,62,61,-0.15,2.26,0.89,-0.94,0.01,0.15,L,2026-01-02 10:07:19
51498,64,61,53,-3.02,-2.37,-1.74,-0.98,-0.01,0.15,L,2026-01-02 10:07:20
52014,66,46,41,-1.05,3.92,1.07,-0.96,0.03,0.16,L,2026-01-02 10:07:20
52567,63,44,47,-1.45,2.43,1.1,-0.95,0.02,0.14,L,2026-01-02 10:07:21
53119,62,46,51,1.08,7.3,1.71,-0.97,0.05,0.14,L,2026-01-02 10:07:21
53675,59,42,43,7.83,-1.54,7.16,-0.97,0.02,0.24,L,2026-01-02 10:07:22
54127,56,46,47,-4.34,6.35,5.48,-0.95,0.14,0.09,L,2026-01-02 10:07:22
54683,57,44,44,6.12,3.73,4.95,-0.97,0.08,0.23,L,2026-01-02 10:07:23
55184,56,56,43,5.71,4.98,-3.04,-0.95,0.05,0.18,L,2026-01-02 10:07:23
55706,58,49,39,-3.85,0.56,-4.5,-0.98,0.05,0.21,L,2026-01-02 10:07:24
56216,55,51,44,0.08,1.66,-0.06,-0.93,0.06,0.2,L,2026-01-02 10:07:24
56736,61,52,43,-0.75,3.62,-2.89,-0.93,0.03,0.23,L,2026-01-02 10:07:25
57287,62,39,43,-1.25,6.67,1.63,-0.93,-0.01,0.2,L,2026-01-02 10:07:25
57787,68,58,41,1.77,1.39,3.4,-0.94,0.02,0.25,L,2026-01-02 10:07:26
58338,59,49,35,-1.31,6.99,3.31,-0.97,0.03,0.22,L,2026-01-02 10:07:27
58887,93,63,57,-8.5,-16.24,-3.48,-1,0.08,0.23,L,2026-01-02 10:07:27
59398,86,59,63,-19.91,14.53,-5.62,-0.92,-0.01,0.33,L,2026-01-02 10:07:28
59906,94,63,61,-0.29,-10.52,4.37,-0.97,-0.03,0.19,L,2026-01-02 10:07:28
60414,97,65,66,-7.53,-8.64,15.39,-0.92,-0.04,0.24,L,2026-01-02 10:07:29
60934,93,65,63,19.8,16.5,12.38,-0.95,0.04,0.22,L,2026-01-02 10:07:29
61447,90,66,65,0.14,4.5,-1.62,-0.94,0.09,0.14,L,2026-01-02 10:07:30
61967,91,68,57,-4.93,3.62,-7.16,-0.99,0.07,0.18,L,2026-01-02 10:07:30
62469,92,70,66,3.4,5.85,-3.62,-0.97,0.01,0.17,L,2026-01-02 10:07:31
62969,92,62,60,3.39,5.19,-0.43,-0.94,0.03,0.16,L,2026-01-02 10:07:31
63523,91,61,61,2.41,6.15,7.77,-0.98,0.05,0.2,L,2026-01-02 10:07:32
63977,93,49,60,-8.64,4.08,-23.05,-0.99,0.01,0.19,L,2026-01-02 10:07:32
64518,91,63,53,1.63,-1.18,15.42,-0.98,0.01,0.03,L,2026-01-02 10:07:33
65020,93,62,60,-2.85,-3.05,-0.09,-0.98,0.03,0.13,L,2026-01-02 10:07:33
65576,91,59,57,-3.92,-0.37,-5.39,-0.95,0,0.1,L,2026-01-02 10:07:34
66047,92,61,57,-0.11,5.53,2.02,-0.98,0,0.13,L,2026-01-02 10:07:34
66599,90,66,55,-2.6,6.95,-1.27,-0.97,0.03,0.12,L,2026-01-02 10:07:35
67153,90,51,61,2.61,-1.07,4.49,-0.95,0.05,0.15,L,2026-01-02 10:07:35
67607,88,56,55,-2.4,3.22,2.49,-0.97,0.06,0.21,L,2026-01-02 10:07:36
68156,88,45,59,-2.17,5.21,-2.24,-0.96,0.06,0.22,L,2026-01-02 10:07:36
68706,90,61,48,-2.55,-0.46,4.93,-0.95,0.01,0.21,L,2026-01-02 10:07:37
69259,88,68,61,0.27,2.89,0.79,-0.96,0.03,0.23,L,2026-01-02 10:07:37
69761,84,62,53,-0.73,3.51,2.84,-0.94,0.06,0.24,L,2026-01-02 10:07:38
70316,87,63,56,-2.47,7.3,3.4,-0.94,0.09,0.24,L,2026-01-02 10:07:39
70765,88,56,56,-10.56,4.26,2.95,-0.97,0.09,0.23,L,2026-01-02 10:07:39
71316,84,44,48,-3.54,9.54,-1.16,-0.95,0.1,0.22,L,2026-01-02 10:07:39
71817,88,69,58,0.7,-6.05,1.74,-0.84,0.06,0.1,L,2026-01-02 10:07:40
72317,88,58,53,0.47,-0.53,-12.67,-1.11,0.09,0.26,L,2026-01-02 10:07:40
72818,82,68,56,-2.61,0,-0.26,-0.98,0.02,0.21,L,2026-01-02 10:07:41
73320,89,62,57,-1.56,4.89,-0.15,-0.96,0.04,0.23,L,2026-01-02 10:07:41
73876,87,59,58,-0.43,0.73,-1.27,-0.95,0.03,0.21,L,2026-01-02 10:07:42
74347,86,58,61,-1.48,2.41,0.43,-0.95,0.03,0.21,L,2026-01-02 10:07:43
74857,90,63,44,-4.34,2.18,1.07,-0.95,0.04,0.22,L,2026-01-02 10:07:43
75359,88,63,60,-1.6,2.29,0.7,-0.95,0.03,0.21,L,2026-01-02 10:07:43
75913,85,62,55,12.15,23.39,7.8,-1.02,0.04,0.15,L,2026-01-02 10:07:44
76390,86,49,53,-10.29,-22.78,-15.01,-1.17,0.08,0.09,L,2026-01-02 10:07:45
76892,84,58,55,-4.18,3.39,5.76,-0.91,0,0.07,L,2026-01-02 10:07:45
77417,88,58,41,-3.63,13.02,-1.39,-0.95,0.03,0.13,L,2026-01-02 10:07:46
77968,87,58,53,-2.5,0.61,4.61,-0.98,0.03,0.1,L,2026-01-02 10:07:46
78469,82,63,55,-3.37,1.69,7.5,-0.96,0.03,0.15,L,2026-01-02 10:07:47
78969,76,51,62,-15.53,-2.78,5.54,-0.99,0.1,0.25,L,2026-01-02 10:07:47
79470,81,83,74,-2.43,5.31,4.99,-0.96,0.14,0.18,L,2026-01-02 10:07:48
79975,78,66,68,-4.87,-0.37,1.02,-0.96,0.14,0.22,L,2026-01-02 10:07:48
80526,80,56,70,3.18,6.82,-0.21,-0.92,0.16,0.21,L,2026-01-02 10:07:49
81027,76,56,63,9.37,3.4,-3.62,-0.91,0.17,0.21,L,2026-01-02 10:07:49
81579,78,69,74,-8.38,-3.59,2.81,-0.97,0.15,0.22,L,2026-01-02 10:07:50
82079,76,61,69,-1.69,3.68,-1.69,-0.92,0.13,0.22,L,2026-01-02 10:07:50
82634,76,61,65,-1.11,4.53,-5.45,-0.94,0.12,0.26,L,2026-01-02 10:07:51
83081,76,65,67,6.41,2.73,1.51,-0.96,0.11,0.24,L,2026-01-02 10:07:51
83583,73,62,63,-2.55,4.06,11.85,-0.93,0.11,0.23,L,2026-01-02 10:07:52
84130,75,61,66,2.61,0.21,3.24,-0.92,0.21,0.24,L,2026-01-02 10:07:52
84684,73,63,61,-5.98,3.68,-10.15,-0.93,0.18,0.26,L,2026-01-02 10:07:53
85131,75,62,65,-2.72,2.55,-0.76,-0.95,0.14,0.24,L,2026-01-02 10:07:53
85686,73,66,59,0.58,0.18,-7.02,-0.92,0.11,0.28,L,2026-01-02 10:07:54
86132,75,63,59,2.64,-0.98,2.5,-0.92,0.09,0.28,L,2026-01-02 10:07:54
86633,74,65,66,-4.14,4.03,0.18,-0.96,0.1,0.2,L,2026-01-02 10:07:55
87140,76,58,69,-3.8,1.59,2.9,-0.95,0.1,0.19,L,2026-01-02 10:07:55
87642,76,61,69,2.5,-4.34,-11.54,-0.91,0.07,0.11,L,2026-01-02 10:07:56
88197,73,63,58,6.24,-0.64,11.66,-1,0.08,0.21,L,2026-01-02 10:07:56
88750,74,42,57,-3.69,-2.96,-4.18,-0.97,0.13,0.24,L,2026-01-02 10:07:57
89250,71,56,58,-2.6,6.56,3.39,-0.93,0.14,0.23,L,2026-01-02 10:07:57
89804,72,46,58,-0.03,1.24,2.18,-0.95,0.12,0.23,L,2026-01-02 10:07:58
90317,71,65,58,-0.85,1.25,0.78,-0.95,0.13,0.22,L,2026-01-02 10:07:58
90869,69,49,58,-4.12,4.63,-2.44,-0.94,0.13,0.25,L,2026-01-02 10:07:59
91426,63,49,54,0.56,6.46,-3.31,-0.95,0.09,0.22,L,2026-01-02 10:08:00
91891,68,56,59,-0.17,5.3,-7.24,-0.99,0.2,0.27,L,2026-01-02 10:08:00
92393,67,59,57,-1.51,4.03,0.14,-0.96,0.19,0.24,L,2026-01-02 10:08:01
92895,65,55,57,-1.37,4.58,-2.31,-0.96,0.1,0.24,L,2026-01-02 10:08:01
93399,69,56,49,-1.56,2.7,0.2,-0.95,0.09,0.23,L,2026-01-02 10:08:02
93907,65,56,59,-1.79,2.6,-0.79,-0.95,0.09,0.23,L,2026-01-02 10:08:02
94456,67,55,58,-2.21,4.76,5.04,-0.97,0.07,0.27,L,2026-01-02 10:08:03
94956,64,62,48,-5.83,1.54,-0.52,-0.94,0.1,0.24,L,2026-01-02 10:08:03
95509,66,66,46,-5.57,5.59,4.37,-0.94,0.11,0.19,L,2026-01-02 10:08:04
96057,70,55,54,-3.51,4.5,1.04,-0.95,0.11,0.21,L,2026-01-02 10:08:04
96559,64,59,54,-1.66,1.86,0.67,-0.95,0.1,0.2,L,2026-01-02 10:08:05
97077,64,51,51,-1.8,0.67,1.04,-0.96,0.08,0.19,L,2026-01-02 10:08:05
97596,66,52,51,-1.25,3.28,1.82,-0.95,0.08,0.19,L,2026-01-02 10:08:06
98103,67,58,55,1.25,2.12,0.12,-0.94,0.09,0.17,L,2026-01-02 10:08:06
98622,70,56,47,-1.28,3.33,0.24,-0.95,0.1,0.19,L,2026-01-02 10:08:07
99176,68,62,59,0.08,-8.87,3.33,-0.95,0.11,0.15,L,2026-01-02 10:08:07
99628,28,30,37,-1.33,-0.06,2.27,-0.93,0.11,0.2,L,2026-01-02 10:08:08
100144,37,42,38,-1.76,0.69,0,-0.93,0.13,0.21,L,2026-01-02 10:08:08
100675,31,38,37,-1.54,8.02,0.14,-0.95,0.11,0.22,L,2026-01-02 10:08:09
101228,35,44,34,-4.31,-0.75,1.16,-0.94,0.09,0.22,L,2026-01-02 10:08:09
101784,37,41,31,1.22,3.47,1.37,-0.96,0.08,0.21,L,2026-01-02 10:08:10
102231,40,37,29,-4.17,-0.23,-0.46,-0.92,0.07,0.21,L,2026-01-02 10:08:10
102731,50,44,39,-1.91,-2.53,0.47,-0.93,0.07,0.2,L,2026-01-02 10:08:11
103231,46,44,41,-0.7,0.41,-1.21,-0.94,0.13,0.23,L,2026-01-02 10:08:11
103736,47,38,41,-1.83,-1.65,-0.79,-0.9,0.17,0.26,L,2026-01-02 10:08:12
104248,47,42,35,-4.06,1.5,-2.7,-0.91,0.12,0.26,L,2026-01-02 10:08:12
104749,49,42,54,-2.29,4.17,-0.11,-0.92,0.1,0.31,L,2026-01-02 10:08:13
105275,58,39,41,-2.27,5.88,-0.44,-0.93,0.12,0.3,L,2026-01-02 10:08:13
105823,56,51,41,-1.16,4.93,0.2,-0.92,0.11,0.29,L,2026-01-02 10:08:14
106323,56,49,31,-0.61,3.42,0.5,-0.92,0.12,0.26,L,2026-01-02 10:08:14
106824,55,45,24,-2.98,1.53,0.73,-0.94,0.11,0.29,L,2026-01-02 10:08:15
107324,51,44,35,0.32,2.2,-0.35,-0.92,0.11,0.26,L,2026-01-02 10:08:15
107829,59,42,39,-2.18,2.78,1.02,-0.92,0.13,0.23,L,2026-01-02 10:08:16
108329,54,46,39,-2.35,4.47,-2,-0.94,0.09,0.28,L,2026-01-02 10:08:17
108857,55,49,41,-3.04,25.16,2.66,-0.96,0.01,0.16,L,2026-01-02 10:08:17
109365,54,46,38,-7.33,-0.69,2.95,-0.95,0.09,0.16,L,2026-01-02 10:08:18
109876,54,42,41,-3.5,5.16,-2.61,-0.96,0.03,0.2,L,2026-01-02 10:08:18
110429,62,48,38,1.71,0.84,6.15,-0.96,0.05,0.15,L,2026-01-02 10:08:19
110930,61,49,41,-4.79,-1.79,-4.49,-0.93,0.08,0.18,L,2026-01-02 10:08:19
111432,61,49,39,5.68,-1.98,1.86,-0.92,0.03,0.16,L,2026-01-02 10:08:20
111934,61,48,41,-0.73,5.24,9.36,-0.91,0.09,0.19,L,2026-01-02 10:08:20
112434,63,42,40,2.24,5.01,-5.1,-1.02,0.06,0.19,L,2026-01-02 10:08:21
112948,63,49,38,7.98,6.75,6.05,-0.91,0.08,0.11,L,2026-01-02 10:08:21
113464,64,45,41,5.65,-0.41,18.55,-0.91,0.11,0.19,L,2026-01-02 10:08:22
113975,66,49,35,-7.56,1.66,-3.73,-0.95,0.12,0.22,L,2026-01-02 10:08:22
114488,68,51,42,-5.68,-3.76,7.74,-1.01,0.08,0.2,L,2026-01-02 10:08:23
114995,68,49,41,-2,-0.34,2.89,-0.93,0.11,0.22,L,2026-01-02 10:08:23
115508,64,49,42,1.98,1.6,0.82,-0.92,0.09,0.2,L,2026-01-02 10:08:24
116025,68,52,42,-2.53,5.13,1.01,-0.95,0.1,0.21,L,2026-01-02 10:08:24
116538,69,52,42,3.91,4.43,-5.24,-0.96,0.15,0.21,L,2026-01-02 10:08:25
117049,68,61,42,1.66,3.8,-1.83,-0.96,0.07,0.18,L,2026-01-02 10:08:25
117559,67,42,39,-3.18,-1.15,1.89,-0.97,0.04,0.17,L,2026-01-02 10:08:26
118112,70,46,44,-4.03,3.22,1.05,-0.95,0.05,0.18,L,2026-01-02 10:08:26
118613,69,51,29,-3.15,0.84,0.69,-0.97,0.08,0.18,L,2026-01-02 10:08:27
119113,69,51,39,-0.4,1.73,7.57,-0.96,0.07,0.19,L,2026-01-02 10:08:27
119618,73,48,41,-4.14,1.44,4.09,-0.92,0.08,0.21,L,2026-01-02 10:08:28
120119,71,49,43,-4.15,3.19,0.35,-0.94,0.07,0.18,L,2026-01-02 10:08:28
120624,70,55,48,-3.28,-0.17,0.89,-0.96,0.08,0.2,L,2026-01-02 10:08:29
121145,73,80,52,1.02,-4.11,4.4,-0.92,0.08,0.21,L,2026-01-02 10:08:29
121658,67,51,44,-1.82,4.26,0.55,-0.95,0.1,0.2,L,2026-01-02 10:08:30
122169,69,52,44,0.63,1.74,0.56,-0.94,0.08,0.17,L,2026-01-02 10:08:30
122687,67,55,53,-3.82,2.47,3.25,-0.95,0.14,0.18,L,2026-01-02 10:08:31
123243,70,52,44,-3.08,4.81,-2.26,-0.97,0.07,0.17,L,2026-01-02 10:08:31
123703,71,52,45,-2.41,-0.26,0.5,-0.97,0.06,0.14,L,2026-01-02 10:08:32
124217,68,46,46,-1.82,3.3,0.89,-0.94,0.06,0.17,L,2026-01-02 10:08:32
124717,66,49,44,-0.56,4.2,-0.73,-0.96,0.06,0.16,L,2026-01-02 10:08:33
125269,69,55,46,0.12,2.73,1.39,-0.96,0.04,0.14,L,2026-01-02 10:08:33
125824,65,46,43,-6.92,0.79,5.48,-0.93,0.04,0.09,L,2026-01-02 10:08:34
126278,70,44,41,-2.96,1.34,-0.95,-0.97,0.07,0.14,L,2026-01-02 10:08:34
126778,69,44,52,-1.76,3.66,1.24,-0.97,0.03,0.13,L,2026-01-02 10:08:35
127280,70,45,53,-2.76,3.11,0.31,-0.96,0.06,0.11,L,2026-01-02 10:08:35
127798,67,52,44,-2.4,2.58,1.3,-0.96,0.05,0.13,L,2026-01-02 10:08:36
