timestamp,flex_thumb,flex_index,flex_middle,gyro_x,gyro_y,gyro_z,accel_x,accel_y,accel_z,label,datetime
625380,1,66,71,-1.66,2.12,-0.02,1.01,-0.1,-0.08,B,2026-01-10 11:26:57
625881,0,68,71,-1.63,2.75,1.02,1.02,-0.11,-0.1,B,2026-01-10 11:26:58
626397,0,68,72,-1.36,2.78,0.64,1.02,-0.1,-0.1,B,2026-01-10 11:26:58
626897,1,67,71,-1.89,0.06,-0.12,1.01,-0.12,-0.09,B,2026-01-10 11:26:59
627434,4,70,74,-1.45,0.61,1.56,1.01,-0.12,-0.08,B,2026-01-10 11:26:59
627977,5,68,73,-1.4,4.55,0.64,1.01,-0.1,-0.08,B,2026-01-10 11:27:00
628503,0,65,70,-0.75,2.93,1.05,1.01,-0.1,-0.03,B,2026-01-10 11:27:00
629045,0,68,71,-1.45,-0.37,1.19,1.01,-0.1,-0.04,B,2026-01-10 11:27:01
629574,5,70,74,-1.19,2.66,0.92,1.02,-0.1,-0.07,B,2026-01-10 11:27:01
630076,4,65,71,-2.27,3.73,0.6,1.01,-0.1,-0.07,B,2026-01-10 11:27:02
630578,5,68,74,-1.47,3.33,0.66,1.02,-0.1,-0.07,B,2026-01-10 11:27:02
631103,3,68,72,-1.22,3.27,-0.09,1.02,-0.1,-0.07,B,2026-01-10 11:27:03
631604,4,70,73,-1.62,1.47,0.78,1.02,-0.1,-0.07,B,2026-01-10 11:27:04
632213,4,67,70,-1.73,2.37,0.67,1.02,-0.09,-0.07,B,2026-01-10 11:27:04
632660,0,67,70,-1.47,2.17,0.5,1.02,-0.09,-0.07,B,2026-01-10 11:27:04
633160,5,65,69,-1.04,3.65,0.11,1.01,-0.1,-0.07,B,2026-01-10 11:27:05
633879,5,66,68,-0.78,1.34,1.27,1.02,-0.09,-0.06,B,2026-01-10 11:27:06
634597,5,65,68,-1.42,2.43,0.43,1.02,-0.09,-0.08,B,2026-01-10 11:27:06
635091,4,68,73,-1.34,1.71,0.6,1.02,-0.1,-0.09,B,2026-01-10 11:27:07
635591,6,70,71,-1.79,3.24,1.22,1.02,-0.09,-0.07,B,2026-01-10 11:27:07
636091,4,70,71,-1.28,1.19,0.7,1.02,-0.1,-0.09,B,2026-01-10 11:27:08
636627,3,68,71,-1.5,2.29,0.69,1.02,-0.1,-0.08,B,2026-01-10 11:27:08
637148,4,68,74,-0.66,2.14,1.36,1.02,-0.1,-0.09,B,2026-01-10 11:27:09
637657,4,70,73,-1.8,4.06,0.26,1.02,-0.11,-0.1,B,2026-01-10 11:27:10
638252,2,68,73,-1.15,1.62,0.14,1.02,-0.1,-0.09,B,2026-01-10 11:27:10
638697,3,70,73,-1.98,2.73,0.96,1.01,-0.1,-0.08,B,2026-01-10 11:27:10
639198,0,70,72,-1.8,2.67,0.37,1.01,-0.1,-0.08,B,2026-01-10 11:27:11
639698,0,67,71,-1.53,1.94,-0.52,1.02,-0.1,-0.1,B,2026-01-10 11:27:12
640236,0,68,70,-1.68,2.17,0.37,1.01,-0.09,-0.1,B,2026-01-10 11:27:12
640738,2,67,72,-1.82,1.3,0.7,1.02,-0.1,-0.1,B,2026-01-10 11:27:13
641416,2,67,72,-0.61,2.43,0.96,1.02,-0.09,-0.1,B,2026-01-10 11:27:13
641861,3,70,71,-1.04,2.02,0.73,1.02,-0.09,-0.09,B,2026-01-10 11:27:14
642382,4,68,71,-1.79,3.3,0.46,1.01,-0.09,-0.09,B,2026-01-10 11:27:14
642893,5,72,73,-1.71,1.63,0.73,1.01,-0.11,-0.09,B,2026-01-10 11:27:15
643394,2,68,71,-1.48,2.03,1.05,1.02,-0.1,-0.09,B,2026-01-10 11:27:15
643895,3,68,72,-1.22,3.13,0.85,1.02,-0.1,-0.09,B,2026-01-10 11:27:16
644406,2,70,71,-1.11,2.64,0.55,1.02,-0.1,-0.09,B,2026-01-10 11:27:16
644915,4,68,72,-1.59,1.19,1.28,1.02,-0.1,-0.1,B,2026-01-10 11:27:17
645450,1,70,74,-1.15,1.71,0.4,1.02,-0.09,-0.09,B,2026-01-10 11:27:17
645974,4,71,74,-1.25,2.87,0.56,1.02,-0.1,-0.1,B,2026-01-10 11:27:18
646622,2,70,73,-1.59,1.45,1.02,1.01,-0.07,-0.08,B,2026-01-10 11:27:18
647098,5,71,73,-3.1,2.11,0.37,1.01,-0.12,-0.09,B,2026-01-10 11:27:19
647633,5,69,74,-1.42,2.93,0.95,1.02,-0.08,-0.09,B,2026-01-10 11:27:21
649997,5,69,74,-1.62,1.83,0.18,1.02,-0.09,-0.12,B,2026-01-10 11:27:22
650442,1,67,70,-1.25,0.23,1.54,1.01,-0.12,-0.1,B,2026-01-10 11:27:22
650948,3,70,72,-1.36,2.93,0.44,1.01,-0.09,-0.11,B,2026-01-10 11:27:23
651547,2,71,72,-0.66,0.06,1.24,1.01,-0.11,-0.12,B,2026-01-10 11:27:23
651996,4,71,72,-1.65,2.4,0.72,1.02,-0.09,-0.1,B,2026-01-10 11:27:24
652506,0,70,70,-1.8,1.65,1.42,1.01,-0.09,-0.12,B,2026-01-10 11:27:24
653015,5,73,74,-0.7,2.21,-0.06,1.02,-0.09,-0.11,B,2026-01-10 11:27:25
653516,0,71,74,-1.37,2.21,0.56,1.02,-0.1,-0.1,B,2026-01-10 11:27:26
654059,0,71,68,-1.59,0.81,0.66,1.01,-0.11,-0.11,B,2026-01-10 11:27:26
654560,4,71,72,-1.31,2.7,0.56,1.01,-0.09,-0.07,B,2026-01-10 11:27:29
657804,4,70,71,-1.63,6.27,2.03,1.02,-0.07,-0.07,B,2026-01-10 11:27:30
658278,2,68,73,-1.82,4.21,-0.38,1.02,-0.09,-0.11,B,2026-01-10 11:27:30
658827,2,73,74,-1.1,1.05,2.32,1.02,-0.09,-0.07,B,2026-01-10 11:27:31
659350,8,72,74,-0.6,-2.06,-0.32,1.01,-0.12,-0.07,B,2026-01-10 11:27:31
659850,5,71,73,-2.05,0.38,1.4,1.02,-0.08,-0.1,B,2026-01-10 11:27:32
660383,3,70,70,-2.09,2.99,-1.69,1.02,-0.1,-0.1,B,2026-01-10 11:27:32
660910,2,70,71,-1.76,0.35,1.4,1.02,-0.08,-0.1,B,2026-01-10 11:27:33
661410,1,70,67,-1.1,1.18,2.03,1.02,-0.09,-0.09,B,2026-01-10 11:27:33
661912,2,70,71,-0.98,1.45,0.34,1.02,-0.1,-0.09,B,2026-01-10 11:27:34
662436,4,70,72,-1.5,2.56,0.78,1.02,-0.06,-0.09,B,2026-01-10 11:27:34
662938,2,70,74,-1.27,2.2,0.21,1.02,-0.1,-0.09,B,2026-01-10 11:27:35
663449,0,70,71,-1.51,5.25,0.35,1.02,-0.09,-0.1,B,2026-01-10 11:27:35
663969,5,67,72,-2.85,5.01,-2.78,1.02,-0.1,-0.08,B,2026-01-10 11:27:36
664470,7,70,72,-1.19,1.86,0.03,1.02,-0.08,-0.07,B,2026-01-10 11:27:36
664970,9,68,72,-1.19,1.4,1.91,1.02,-0.1,-0.12,B,2026-01-10 11:27:37
665482,7,67,71,-1.31,1.48,0.43,1.02,-0.09,-0.1,B,2026-01-10 11:27:37
666026,7,67,71,-1.54,2.93,0.76,1.02,-0.09,-0.1,B,2026-01-10 11:27:38
666528,7,65,72,-1.07,2.21,0.61,1.02,-0.09,-0.1,B,2026-01-10 11:27:38
667034,7,66,69,-1.51,0.6,0.96,1.02,-0.08,-0.1,B,2026-01-10 11:27:39
667536,6,68,76,-0.2,2.24,1.39,1.02,-0.09,-0.08,B,2026-01-10 11:27:39
668081,8,68,71,-1.42,2.99,0.35,1.02,-0.09,-0.09,B,2026-01-10 11:27:40
668583,9,67,72,-0.6,1.83,0.99,1.02,-0.08,-0.08,B,2026-01-10 11:27:40
669084,6,68,71,-1.83,1.66,1.05,1.02,-0.09,-0.09,B,2026-01-10 11:27:41
669608,7,69,72,-0.92,1.24,0.5,1.02,-0.1,-0.09,B,2026-01-10 11:27:42
670146,5,68,69,-0.87,2.15,1.18,1.02,-0.09,-0.09,B,2026-01-10 11:27:42
670646,11,67,72,-1.48,2.52,0.43,1.02,-0.08,-0.07,B,2026-01-10 11:27:42
671147,6,68,70,-1.37,2.03,0.73,1.02,-0.08,-0.08,B,2026-01-10 11:27:43
671655,7,70,71,-0.84,0.99,1.3,1.02,-0.1,-0.08,B,2026-01-10 11:27:43
672333,6,70,71,-1.79,3.24,0.7,1.02,-0.09,-0.09,B,2026-01-10 11:27:44
672778,7,68,70,-1.28,2.17,0.75,1.02,-0.08,-0.1,B,2026-01-10 11:27:45
673287,5,68,71,-1.18,2.6,0.69,1.02,-0.09,-0.1,B,2026-01-10 11:27:45
673787,6,68,72,-1.08,3.24,0.78,1.02,-0.07,-0.08,B,2026-01-10 11:27:46
674322,8,67,70,-1.28,3.33,0.11,1.02,-0.08,-0.09,B,2026-01-10 11:27:46
674856,7,68,74,-0.17,9.4,-4.24,1.02,-0.09,-0.07,B,2026-01-10 11:27:50
678089,8,68,73,-1.27,1.42,-0.21,1.02,-0.08,-0.05,B,2026-01-10 11:27:50
678536,6,72,71,-1.02,1.08,-0.12,1.02,-0.1,-0.05,B,2026-01-10 11:27:50
679037,8,74,70,-1.37,1.82,1.11,1.02,-0.07,-0.03,B,2026-01-10 11:27:51
679538,9,70,74,-1.59,3.42,0.64,1.02,-0.08,-0.05,B,2026-01-10 11:27:51
680039,8,68,72,-1.74,1.62,1.11,1.02,-0.07,-0.06,B,2026-01-10 11:27:52
680568,8,73,71,-1.37,0.21,0.41,1.02,-0.07,-0.05,B,2026-01-10 11:27:52
681068,6,67,76,-1.3,0.61,-0.21,1.02,-0.07,-0.06,B,2026-01-10 11:27:53
681569,5,70,73,-1.77,1.95,1.65,1.02,-0.08,-0.06,B,2026-01-10 11:27:53
682086,4,67,69,-1.13,2.46,0.31,1.02,-0.08,-0.07,B,2026-01-10 11:27:54
682605,6,67,76,-1.11,2.55,0.17,1.02,-0.07,-0.06,B,2026-01-10 11:27:54
683106,5,67,73,-1.44,1.15,0.2,1.02,-0.08,-0.1,B,2026-01-10 11:27:55
683616,5,71,74,-1.44,1.83,-0.34,1.02,-0.05,-0.1,B,2026-01-10 11:27:55
684117,5,67,73,-1.01,1.53,0.67,1.03,-0.06,-0.07,B,2026-01-10 11:27:56
684657,7,70,74,-0.63,0.78,0.56,1.02,-0.07,-0.07,B,2026-01-10 11:27:56
685182,7,70,74,-2,2.09,0.46,1.02,-0.06,-0.09,B,2026-01-10 11:27:57
685682,5,67,73,-1.68,1.53,0.67,1.03,-0.07,-0.09,B,2026-01-10 11:27:58
686204,5,67,69,-1.27,2.72,0.89,1.02,-0.06,-0.09,B,2026-01-10 11:27:58
686704,5,68,71,-0.93,3.18,0.43,1.02,-0.07,-0.09,B,2026-01-10 11:27:58
687243,5,65,69,-1.37,5.51,0.53,1.02,-0.08,-0.13,B,2026-01-10 11:27:59
687744,5,70,71,-0.21,6.63,-1.8,1.03,-0.03,0.01,B,2026-01-10 11:28:00
688244,6,68,71,-1.63,0.49,2.76,1.02,-0.04,-0.01,B,2026-01-10 11:28:00
688754,5,68,72,-3.65,2.92,-2.29,1.01,-0.02,-0.04,B,2026-01-10 11:28:01
689256,5,68,73,-1.63,3.11,0.26,1.02,-0.03,-0.05,B,2026-01-10 11:28:01
689790,7,67,72,-2.11,3.27,0.03,1.02,-0.01,-0.06,B,2026-01-10 11:28:02
690293,8,67,71,-0.66,0.7,-0.02,1.02,-0.04,-0.05,B,2026-01-10 11:28:02
690804,5,67,72,-0.09,0.81,-0.17,1.01,-0.06,-0.08,B,2026-01-10 11:28:03
691305,6,70,71,3.18,-2.84,0,1.03,-0.02,-0.06,B,2026-01-10 11:28:03
691837,5,72,71,-5.01,-1.25,2.98,1.02,-0.01,-0.13,B,2026-01-10 11:28:04
692337,5,70,69,-0.44,2.87,0.5,1.02,-0.06,-0.1,B,2026-01-10 11:28:04
692847,5,67,69,-1.62,0.75,0.5,1.02,-0.04,-0.08,B,2026-01-10 11:28:05
693347,5,65,70,-0.98,2.66,1.74,1.03,-0.04,-0.07,B,2026-01-10 11:28:05
693872,5,67,70,-1.68,3.59,0.06,1.02,-0.03,-0.09,B,2026-01-10 11:28:06
694573,5,68,70,-1.33,2.47,0.69,1.02,-0.05,-0.09,B,2026-01-10 11:28:06
695019,6,70,76,-1.82,2.81,0.93,1.02,-0.04,-0.09,B,2026-01-10 11:28:07
695598,7,70,76,-1.69,1.79,0.66,1.02,-0.05,-0.1,B,2026-01-10 11:28:07
696047,4,65,68,-1.42,2.72,0.46,1.02,-0.04,-0.1,B,2026-01-10 11:28:08
696549,5,66,69,-1.3,1.4,1.13,1.02,-0.05,-0.1,B,2026-01-10 11:28:08
697051,5,66,71,-1.3,2.73,0.63,1.02,-0.04,-0.09,B,2026-01-10 11:28:09
697622,5,66,70,-1.47,2.66,1.07,1.02,-0.04,-0.11,B,2026-01-10 11:28:09
698068,4,66,70,-0.99,1.91,0.9,1.02,-0.05,-0.1,B,2026-01-10 11:28:10
698576,5,67,73,-1.89,2.37,0.52,1.02,-0.04,-0.09,B,2026-01-10 11:28:10
699076,5,67,70,-1.69,2.09,0.37,1.02,-0.06,-0.1,B,2026-01-10 11:28:11
699624,5,68,72,-1.39,2.24,0.44,1.02,-0.04,-0.1,B,2026-01-10 11:28:12
700130,5,70,72,-1.53,2.7,2.18,1.02,-0.04,-0.09,B,2026-01-10 11:28:12
700656,5,70,73,-1.47,2.15,0.87,1.02,-0.06,-0.1,B,2026-01-10 11:28:12
701158,4,68,71,-1.37,2.15,1.39,1.02,-0.06,-0.1,B,2026-01-10 11:28:13
701658,4,66,72,-0.11,4.44,1.21,1.02,-0.07,-0.08,B,2026-01-10 11:28:13
702173,6,68,72,-1.1,3.3,-0.11,1.03,-0.07,-0.09,B,2026-01-10 11:28:14
702674,13,66,71,-1.3,2.58,0.17,1.02,-0.07,-0.08,B,2026-01-10 11:28:15
703174,14,68,70,-1.19,2.41,1.22,1.02,-0.07,-0.06,B,2026-01-10 11:28:15
703709,14,67,70,-0.66,1.89,0.34,1.02,-0.07,-0.09,B,2026-01-10 11:28:16
704228,14,65,69,-1.22,0.66,0.81,1.02,-0.07,-0.07,B,2026-01-10 11:28:16
704728,10,65,69,-1.51,2.11,0.96,1.02,-0.07,-0.08,B,2026-01-10 11:28:17
705269,11,66,70,-1.18,1.16,2.67,1.02,-0.09,-0.09,B,2026-01-10 11:28:17
705920,12,65,70,-1.28,1.98,-0.02,1.02,-0.07,-0.09,B,2026-01-10 11:28:18
706367,10,64,69,-2.08,1.91,0.67,1.02,-0.07,-0.08,B,2026-01-10 11:28:18
706874,12,66,71,0.37,6.09,1.18,1.02,-0.1,-0.08,B,2026-01-10 11:28:19
707407,12,66,70,-1.31,4.73,-0.43,1.02,-0.07,-0.07,B,2026-01-10 11:28:19
707963,3,65,70,-0.76,-4.84,0.17,1.02,-0.07,-0.06,B,2026-01-10 11:28:20
708411,3,65,69,-2.21,2.17,0.89,1.02,-0.07,-0.12,B,2026-01-10 11:28:20
708920,4,65,70,-1.02,0.66,0.29,1.01,-0.11,-0.11,B,2026-01-10 11:28:21
709447,5,65,70,-0.05,0.95,1.37,1.02,-0.09,-0.1,B,2026-01-10 11:28:21
709947,6,68,68,-1.68,3.22,0.76,1.02,-0.09,-0.08,B,2026-01-10 11:28:22
710499,5,67,72,-1.44,3.94,0.26,1.02,-0.09,-0.1,B,2026-01-10 11:28:22
711054,2,64,71,-1.24,2.58,0.47,1.03,-0.08,-0.09,B,2026-01-10 11:28:23
711500,3,66,71,-0.75,2.98,0.66,1.02,-0.09,-0.1,B,2026-01-10 11:28:24
712142,5,66,71,-1.68,2.29,0.58,1.02,-0.09,-0.09,B,2026-01-10 11:28:24
712616,5,67,71,-1.73,3.1,0.49,1.02,-0.1,-0.1,B,2026-01-10 11:28:24
713116,2,64,69,-1.54,2.02,0.35,1.02,-0.09,-0.1,B,2026-01-10 11:28:25
713628,4,65,70,-1.59,3.45,0.72,1.02,-0.08,-0.09,B,2026-01-10 11:28:25
714141,3,65,71,-1.22,3.97,0.89,1.01,-0.09,-0.08,B,2026-01-10 11:28:26
714667,4,67,68,-2.05,2.53,0.55,1.02,-0.08,-0.08,B,2026-01-10 11:28:26
715194,4,67,73,-1.71,2.96,0.52,1.02,-0.09,-0.07,B,2026-01-10 11:28:27
715695,5,68,71,-1.73,4.35,0.17,1.02,-0.08,-0.11,B,2026-01-10 11:28:28
716196,4,65,71,-1.28,2.03,0.23,1.02,-0.08,-0.09,B,2026-01-10 11:28:28
716783,4,64,71,-0.61,4.99,0.29,1.02,-0.11,-0.11,B,2026-01-10 11:28:29
717229,3,66,70,-1.16,1.66,1.1,1.02,-0.09,-0.11,B,2026-01-10 11:28:29
717730,4,64,69,-0.89,3.89,0.96,1.02,-0.06,-0.08,B,2026-01-10 11:28:30
718248,0,64,68,-1.73,0.72,2.03,1.02,-0.09,-0.09,B,2026-01-10 11:28:30
718748,5,65,70,-1.71,2.02,0.56,1.02,-0.09,-0.08,B,2026-01-10 11:28:31
719249,1,65,69,-0.99,1.86,0.09,1.02,-0.09,-0.08,B,2026-01-10 11:28:31
719769,5,64,69,-1.39,1.62,1.73,1.02,-0.1,-0.07,B,2026-01-10 11:28:32
720271,4,65,68,-1.83,2.93,0.15,1.01,-0.09,-0.07,B,2026-01-10 11:28:32
720771,5,67,71,-0.76,2.5,0.87,1.02,-0.08,-0.09,B,2026-01-10 11:28:33
721321,4,66,71,-2.34,2.92,-0.03,1.02,-0.08,-0.11,B,2026-01-10 11:28:33
721823,4,65,70,-1.05,4.06,0.49,1.02,-0.06,-0.12,B,2026-01-10 11:28:34
722345,4,64,68,-1.1,3.24,1.54,1.02,-0.08,-0.09,B,2026-01-10 11:28:34
722847,4,64,70,-1.63,2.85,1.07,1.02,-0.09,-0.12,B,2026-01-10 11:28:35
723348,5,64,71,0.38,3.97,-0.24,1.01,-0.1,-0.14,B,2026-01-10 11:28:35
723873,4,64,70,-1.01,2.37,0.99,1.01,-0.08,-0.12,B,2026-01-10 11:28:36
724375,5,66,71,-1.73,2.56,0.12,1.02,-0.08,-0.1,B,2026-01-10 11:28:36
724890,5,66,70,-1.02,3.91,0.64,1.02,-0.09,-0.1,B,2026-01-10 11:28:37
725616,5,66,70,-0.78,4.34,1.1,1.02,-0.08,-0.08,B,2026-01-10 11:28:37
726094,5,65,73,-1.48,1.1,0.75,1.02,-0.12,-0.1,B,2026-01-10 11:28:38
726594,5,67,71,-0.73,1.36,0.7,1.01,-0.09,-0.08,B,2026-01-10 11:28:39
727127,6,66,69,-0.24,-1.22,3.3,1.02,-0.08,-0.07,B,2026-01-10 11:28:39
727629,5,64,69,-2.21,1.05,-0.14,1.02,-0.11,-0.13,B,2026-01-10 11:28:39
728162,4,66,70,-1.63,5.4,-0.17,1.03,-0.11,-0.12,B,2026-01-10 11:28:40
728691,4,64,71,-0.53,2.37,0.53,1.02,-0.1,-0.13,B,2026-01-10 11:28:40
729218,5,67,73,-1.1,3.5,0.7,1.02,-0.11,-0.1,B,2026-01-10 11:28:41
729718,5,67,73,-1.27,3.5,0.49,1.01,-0.09,-0.11,B,2026-01-10 11:28:42
730233,5,66,71,-1.33,3.15,0.29,1.02,-0.1,-0.1,B,2026-01-10 11:28:42
730762,5,65,71,-1.19,2.93,0.73,1.02,-0.09,-0.07,B,2026-01-10 11:28:43
731318,5,65,69,-1.07,1.11,0.81,1.02,-0.09,-0.08,B,2026-01-10 11:28:43
731769,5,66,70,-0.67,-1.1,-0.02,1.02,-0.11,-0.09,B,2026-01-10 11:28:44
732270,3,67,71,-1.97,2.05,0.15,1.02,-0.11,-0.1,B,2026-01-10 11:28:44
732784,3,67,69,-1.25,1.02,0.4,1.01,-0.1,-0.09,B,2026-01-10 11:28:45
733286,2,67,70,-1.47,2.37,1.05,1.02,-0.1,-0.09,B,2026-01-10 11:28:45
733815,4,68,71,-1.77,3.56,0.09,1.02,-0.09,-0.11,B,2026-01-10 11:28:46
734368,4,67,73,-1.74,2.56,0.7,1.01,-0.1,-0.11,B,2026-01-10 11:28:46
734903,1,65,69,-1.44,1.59,0.56,1.02,-0.09,-0.11,B,2026-01-10 11:28:47
735412,4,65,70,-1.6,2.17,0.61,1.02,-0.08,-0.11,B,2026-01-10 11:28:47
735964,4,67,70,-1.42,2.27,0.66,1.02,-0.1,-0.11,B,2026-01-10 11:28:48
736464,4,65,70,-1.13,3.02,0.93,1.02,-0.1,-0.1,B,2026-01-10 11:28:48
736971,5,67,71,-1.21,2.27,0.49,1.02,-0.09,-0.11,B,2026-01-10 11:28:49
737494,5,66,71,-1.89,4.21,2.06,1.02,-0.09,-0.11,B,2026-01-10 11:28:49
738042,3,65,68,-0.64,2.89,0.44,1.02,-0.1,-0.12,B,2026-01-10 11:28:50
738715,5,65,68,-1.85,2.58,0.9,1.02,-0.09,-0.12,B,2026-01-10 11:28:51
739195,4,67,71,-1.31,1.69,0.06,1.02,-0.09,-0.12,B,2026-01-10 11:28:51
739741,3,67,66,-0.87,0.82,1.18,1.02,-0.09,-0.1,B,2026-01-10 11:28:54
742718,2,67,68,-1.76,2.43,-0.21,1.01,-0.09,-0.12,B,2026-01-10 11:28:54
743209,4,68,70,-0.89,2.99,0.58,1.02,-0.11,-0.12,B,2026-01-10 11:28:55
743735,1,70,71,-2.18,2.18,0.93,1.02,-0.1,-0.11,B,2026-01-10 11:28:56
744235,4,68,71,-1.42,1.31,0.73,1.02,-0.09,-0.12,B,2026-01-10 11:28:56
744737,3,66,69,-1.15,0.93,0.87,1.01,-0.1,-0.11,B,2026-01-10 11:28:56
745269,0,65,66,-0.84,2.67,0.87,1.02,-0.1,-0.12,B,2026-01-10 11:28:57
745802,5,65,70,-1.62,2.32,0.66,1.01,-0.12,-0.12,B,2026-01-10 11:28:58
746303,2,66,72,-1.28,1.66,0.66,1.02,-0.1,-0.13,B,2026-01-10 11:28:58
746816,3,68,73,-1.89,2.69,0.75,1.01,-0.11,-0.13,B,2026-01-10 11:28:59
747317,3,67,73,-1.24,4,-0.15,1.02,-0.09,-0.13,B,2026-01-10 11:28:59
747860,2,65,71,-1.18,3.07,0.53,1.01,-0.1,-0.12,B,2026-01-10 11:29:00
748362,4,67,71,-2.05,2.05,0.21,1.02,-0.1,-0.13,B,2026-01-10 11:29:00
748862,3,65,72,-1.31,1.33,0.84,1.02,-0.1,-0.12,B,2026-01-10 11:29:01
749384,1,68,71,-1.19,2.21,0.7,1.02,-0.1,-0.12,B,2026-01-10 11:29:01
749912,4,66,70,-1.95,2.81,0.11,1.01,-0.11,-0.13,B,2026-01-10 11:29:02
750413,2,65,70,-1.4,1.83,0.84,1.02,-0.09,-0.12,B,2026-01-10 11:29:02
750926,3,70,69,-1.42,1.92,0.46,1.02,-0.09,-0.13,B,2026-01-10 11:29:03
751427,0,66,70,-1.73,2.63,0.17,1.01,-0.1,-0.15,B,2026-01-10 11:29:03
751934,2,65,70,-1.57,3.25,0.31,1.02,-0.09,-0.13,B,2026-01-10 11:29:04
752434,5,66,70,-1.1,1.98,0.69,1.02,-0.1,-0.14,B,2026-01-10 11:29:04
752960,0,67,72,-1.45,3.31,0.72,1.01,-0.1,-0.13,B,2026-01-10 11:29:05
753461,1,68,73,-1.39,2.56,-0.03,1.01,-0.11,-0.13,B,2026-01-10 11:29:05
753984,0,67,69,-1.63,2.84,0.98,1.02,-0.1,-0.14,B,2026-01-10 11:29:06
754504,1,68,71,-1.59,2.06,0.38,1.01,-0.1,-0.13,B,2026-01-10 11:29:06
755008,2,67,69,-0.7,3.51,0.56,1.02,-0.09,-0.13,B,2026-01-10 11:29:07
755524,4,66,71,-1.11,2.38,1.16,1.02,-0.09,-0.12,B,2026-01-10 11:29:07
756025,0,66,72,-2.11,2.02,0.79,1.02,-0.11,-0.14,B,2026-01-10 11:29:08
756555,3,68,70,-1.25,2.96,0.23,1.02,-0.1,-0.13,B,2026-01-10 11:29:08
757057,1,64,71,-1.28,1.56,0.73,1.02,-0.1,-0.14,B,2026-01-10 11:29:09
757557,1,67,73,-1.15,2.11,0.79,1.02,-0.1,-0.14,B,2026-01-10 11:29:09
758091,0,67,70,-1.6,2.75,0.44,1.01,-0.11,-0.13,B,2026-01-10 11:29:10
758591,0,65,69,-1.15,2.69,0.18,1.01,-0.1,-0.13,B,2026-01-10 11:29:10
759091,2,66,71,-1.39,1.92,0.63,1.01,-0.1,-0.13,B,2026-01-10 11:29:11
759593,3,66,70,-1.39,2.4,0.56,1.02,-0.09,-0.14,B,2026-01-10 11:29:11
760148,2,66,70,-1.36,2.09,0.58,1.01,-0.1,-0.14,B,2026-01-10 11:29:12
760648,3,67,73,-1.42,3.74,0.6,1.01,-0.1,-0.14,B,2026-01-10 11:29:12
761198,2,69,71,-0.84,3.24,0.49,1.02,-0.1,-0.13,B,2026-01-10 11:29:13
761700,2,66,72,-1.88,2.03,-0.09,1.01,-0.1,-0.13,B,2026-01-10 11:29:14
762202,1,65,73,-1.05,2.31,0.31,1.02,-0.09,-0.13,B,2026-01-10 11:29:14
762702,1,68,73,-1.28,1.51,0.78,1.02,-0.1,-0.14,B,2026-01-10 11:29:15
763216,0,68,70,-1.59,2.26,0.4,1.02,-0.1,-0.15,B,2026-01-10 11:29:15
763716,0,67,70,-1.92,2.64,0.27,1.01,-0.1,-0.15,B,2026-01-10 11:29:16
764301,0,68,70,-1.79,2.67,0.31,1.01,-0.1,-0.17,B,2026-01-10 11:29:16
764748,4,66,72,-1.21,2.21,0.47,1.01,-0.1,-0.15,B,2026-01-10 11:29:17
765254,11,65,72,-1.36,2.08,0.37,1.01,-0.09,-0.15,B,2026-01-10 11:29:17
765775,0,65,67,-1.33,2.4,0.55,1.01,-0.09,-0.15,B,2026-01-10 11:29:18
766364,2,65,67,-1.42,2.43,0.55,1.02,-0.09,-0.14,B,2026-01-10 11:29:18
766818,2,68,74,-1.66,2.9,0.23,1.01,-0.09,-0.14,B,2026-01-10 11:29:19
767384,2,68,74,-1.02,1.56,0.47,1.01,-0.1,-0.15,B,2026-01-10 11:29:19
767830,2,65,70,-1.54,2.29,0.53,1.01,-0.09,-0.15,B,2026-01-10 11:29:20
768330,0,65,68,-1.56,2.78,0.24,1.02,-0.1,-0.16,B,2026-01-10 11:29:20
768831,0,67,67,-1.63,2.82,1.04,1.01,-0.1,-0.15,B,2026-01-10 11:29:21
769414,0,67,67,-1.31,2.27,0.75,1.02,-0.09,-0.14,B,2026-01-10 11:29:21
769860,0,65,71,-1.18,1.37,0.15,1.02,-0.1,-0.16,B,2026-01-10 11:29:22
770706,0,66,71,-0.9,1.65,0.17,1.01,-0.11,-0.14,B,2026-01-10 11:29:23
771196,0,67,72,-0.92,2.69,0.18,1.01,-0.1,-0.15,B,2026-01-10 11:29:23
771697,0,66,69,-1.22,1.91,0.89,1.01,-0.1,-0.14,B,2026-01-10 11:29:24
772209,0,66,66,-1.65,1.4,0.85,1.02,-0.09,-0.14,B,2026-01-10 11:29:24
772711,0,66,66,-1.8,2.89,0.67,1.01,-0.1,-0.15,B,2026-01-10 11:29:24
773240,0,68,70,-0.96,3.68,-0.03,1.02,-0.1,-0.15,B,2026-01-10 11:29:25
773740,2,67,69,-1.21,2.89,0.99,1.01,-0.11,-0.13,B,2026-01-10 11:29:26
774273,0,67,68,-1.13,2.69,0.18,1.02,-0.09,-0.12,B,2026-01-10 11:29:26
774814,0,67,70,-1.31,2.35,0.56,1.02,-0.09,-0.13,B,2026-01-10 11:29:27
775364,0,68,72,-1.07,1.85,0.55,1.02,-0.1,-0.14,B,2026-01-10 11:29:27
775909,0,67,71,-1.56,2.58,0.55,1.02,-0.1,-0.14,B,2026-01-10 11:29:28
776410,0,64,72,-1.5,2.27,1.05,1.01,-0.09,-0.13,B,2026-01-10 11:29:28
776912,0,67,71,-0.85,1.8,0.6,1.02,-0.09,-0.13,B,2026-01-10 11:29:29
777421,5,70,72,-1.42,0.2,1.01,1.01,-0.09,-0.13,B,2026-01-10 11:29:30
778217,5,70,72,-1.44,1.8,0.23,1.02,-0.1,-0.14,B,2026-01-10 11:29:30
778883,5,70,72,-0.89,2.31,1.21,1.01,-0.1,-0.14,B,2026-01-10 11:29:31
779330,0,66,71,-0.87,2.17,0.64,1.02,-0.1,-0.13,B,2026-01-10 11:29:31
780064,0,65,71,-2.43,2.14,0.29,1.01,-0.11,-0.14,B,2026-01-10 11:29:32
780509,0,68,71,-0.6,1.6,1.59,1.01,-0.09,-0.14,B,2026-01-10 11:29:32
781017,2,69,71,-1.27,2.85,0.67,1.01,-0.1,-0.13,B,2026-01-10 11:29:33
781559,2,68,73,-1.13,2.09,0.35,1.01,-0.1,-0.13,B,2026-01-10 11:29:33
782080,2,68,71,-0.93,2.35,0.6,1.02,-0.1,-0.14,B,2026-01-10 11:29:34
782580,4,71,71,-1.02,1.22,1.05,1.02,-0.11,-0.14,B,2026-01-10 11:29:34
783080,2,68,69,-1.22,2.78,0.95,1.02,-0.09,-0.13,B,2026-01-10 11:29:35
783582,0,70,70,-1.34,2.7,0.46,1.01,-0.1,-0.13,B,2026-01-10 11:29:35
784084,0,67,71,-1.25,0.58,0.34,1.02,-0.11,-0.13,B,2026-01-10 11:29:36
784586,0,71,71,-1.05,1.59,1.45,1.01,-0.1,-0.12,B,2026-01-10 11:29:37
785111,2,68,69,-0.93,1.47,-1.07,1.01,-0.13,-0.19,B,2026-01-10 11:29:37
785661,1,68,72,-1.34,2.4,1.08,1.01,-0.09,-0.12,B,2026-01-10 11:29:37
786162,3,68,71,-0.64,1.85,0.4,1.01,-0.11,-0.12,B,2026-01-10 11:29:38
786735,3,69,71,-1.39,2.31,0.47,1.01,-0.1,-0.13,B,2026-01-10 11:29:38
787186,3,68,73,-1.57,1.77,0.37,1.01,-0.11,-0.14,B,2026-01-10 11:29:39
787687,2,67,72,-1.01,1.37,1.13,1.02,-0.1,-0.13,B,2026-01-10 11:29:40
788188,3,68,73,-1.53,1.69,0.14,1.02,-0.1,-0.14,B,2026-01-10 11:29:40
788690,1,68,73,-1.45,0.84,1.16,1.01,-0.11,-0.14,B,2026-01-10 11:29:40
789228,0,67,70,-1.42,2.24,0.63,1.01,-0.1,-0.15,B,2026-01-10 11:29:41
789732,0,66,70,-1.31,2.55,0.61,1.01,-0.11,-0.14,B,2026-01-10 11:29:42
790240,3,66,71,-1.57,2.24,0.6,1.01,-0.1,-0.16,B,2026-01-10 11:29:42
790741,1,68,68,-1.63,0.78,0.87,1.02,-0.1,-0.14,B,2026-01-10 11:29:42
791241,0,68,70,-1.79,2.44,-0.05,1.01,-0.12,-0.14,B,2026-01-10 11:29:43
791742,2,68,70,-1.79,2.73,0.63,1.01,-0.11,-0.13,B,2026-01-10 11:29:44
792255,2,68,70,-1.3,2.35,0.53,1.01,-0.1,-0.15,B,2026-01-10 11:29:44
792757,0,67,71,-1.69,3.05,0.43,1.01,-0.1,-0.15,B,2026-01-10 11:29:44
793310,0,69,72,-1.18,1.68,0.38,1.01,-0.1,-0.15,B,2026-01-10 11:29:45
793811,1,70,70,-0.93,3.05,0.34,1.01,-0.09,-0.15,B,2026-01-10 11:29:46
794312,1,68,71,-1.27,2.5,0.93,1.01,-0.1,-0.15,B,2026-01-10 11:29:46
794833,2,68,70,-0.89,2.06,0.72,1.01,-0.1,-0.15,B,2026-01-10 11:29:47
795341,1,67,71,-1.44,3.25,0.35,1.01,-0.1,-0.15,B,2026-01-10 11:29:47
795847,0,67,71,-1.02,2.53,0.4,1.02,-0.09,-0.15,B,2026-01-10 11:29:48
796380,0,66,69,-1.21,2.34,0.52,1.01,-0.1,-0.15,B,2026-01-10 11:29:48
796891,0,67,70,-1.57,2.58,0.69,1.01,-0.11,-0.15,B,2026-01-10 11:29:49
797422,1,66,71,-1.18,1.89,0.79,1.01,-0.1,-0.15,B,2026-01-10 11:29:50
798351,0,67,71,-1.05,2.66,0.58,1.01,-0.09,-0.14,B,2026-01-10 11:29:50
799210,3,67,68,-2.34,1.94,0.95,1.01,-0.11,-0.14,B,2026-01-10 11:29:51
799669,3,65,69,-1.15,2.81,0.66,1.01,-0.11,-0.17,B,2026-01-10 11:29:52
800611,0,65,68,-1.65,2.31,0.75,1.01,-0.1,-0.16,B,2026-01-10 11:29:53
801070,0,65,69,-1.39,2.67,0.66,1.01,-0.11,-0.16,B,2026-01-10 11:29:53
801594,2,66,73,-1.39,2.81,0.32,1.02,-0.07,-0.16,B,2026-01-10 11:29:53
802094,1,68,71,-1.13,2.21,0.52,1.01,-0.1,-0.16,B,2026-01-10 11:29:54
802594,0,68,71,-1.5,2.26,0.81,1.01,-0.1,-0.17,B,2026-01-10 11:29:54
803132,0,67,73,-0.96,2.82,0.61,1.01,-0.1,-0.17,B,2026-01-10 11:29:55
803641,1,66,71,-1.39,2.12,0.84,1.01,-0.1,-0.16,B,2026-01-10 11:29:55
804148,2,68,72,-1.68,2.18,0.12,1.01,-0.1,-0.16,B,2026-01-10 11:29:56
804649,3,68,73,-0.99,3.07,1.19,1.01,-0.11,-0.16,B,2026-01-10 11:29:56
805182,1,66,69,-2.08,1.69,1.27,1.01,-0.1,-0.17,B,2026-01-10 11:29:57
805691,1,68,73,-1.45,2.56,0.85,1.01,-0.1,-0.16,B,2026-01-10 11:29:58
806217,0,66,70,-1.25,2.38,1.01,1.01,-0.11,-0.16,B,2026-01-10 11:29:58
806717,0,66,69,-1.31,2.43,0.92,1.01,-0.1,-0.17,B,2026-01-10 11:29:59
807218,0,66,68,-1.18,2.12,0.78,1.01,-0.11,-0.16,B,2026-01-10 11:29:59
807748,0,68,72,-1.31,2.41,0.75,1.01,-0.1,-0.16,B,2026-01-10 11:29:59
808250,0,68,74,-1.24,3.77,0.84,1.01,-0.11,-0.17,B,2026-01-10 11:30:00
808799,0,67,71,-1.19,1.98,0.55,1.02,-0.09,-0.15,B,2026-01-10 11:30:01
809300,4,68,71,-1.27,2.5,0.58,1.01,-0.09,-0.16,B,2026-01-10 11:30:01
809802,0,67,71,-0.84,3.1,0.76,1.01,-0.11,-0.17,B,2026-01-10 11:30:02
810304,2,67,70,-1.65,1.69,0.96,1.01,-0.11,-0.17,B,2026-01-10 11:30:02
810804,2,67,71,-0.92,1.08,2.15,1.01,-0.11,-0.17,B,2026-01-10 11:30:03
811340,0,67,69,-1.34,3.04,1.05,1.01,-0.1,-0.16,B,2026-01-10 11:30:03
811858,2,68,70,-1.86,2.82,0.63,1.01,-0.1,-0.15,B,2026-01-10 11:30:04
812360,4,66,73,-1.56,2.82,0.11,1.01,-0.09,-0.14,B,2026-01-10 11:30:04
812860,0,67,71,-1.77,0.46,0.53,1.01,-0.11,-0.16,B,2026-01-10 11:30:05
813362,0,68,71,-2.15,-1.18,-1.83,1.01,-0.12,-0.18,B,2026-01-10 11:30:05
813868,1,70,72,-0.92,2.6,0.37,1.01,-0.1,-0.16,B,2026-01-10 11:30:06
814402,2,65,69,-2,3.42,0.6,1.01,-0.1,-0.18,B,2026-01-10 11:30:06
814902,4,68,73,-0.85,0.29,0.87,1.01,-0.1,-0.16,B,2026-01-10 11:30:07
815415,0,68,71,-1.42,1.4,0.08,1.02,-0.1,-0.18,B,2026-01-10 11:30:07
815928,0,68,73,-1.02,2.72,0.98,1.01,-0.11,-0.16,B,2026-01-10 11:30:08
816434,3,68,74,-0.6,5.16,0.89,1.01,-0.1,-0.16,B,2026-01-10 11:30:08
816962,0,65,69,-1.63,0.32,0.12,1.02,-0.08,-0.15,B,2026-01-10 11:30:09
817463,2,67,70,-1.36,2.17,1.21,1.01,-0.1,-0.14,B,2026-01-10 11:30:09
817964,0,65,69,-4.89,0.06,-1.66,1.01,-0.14,-0.2,B,2026-01-10 11:30:10
818490,0,69,70,2.31,10.03,0.87,1.03,-0.09,-0.11,B,2026-01-10 11:30:10
818992,0,65,71,-1.05,-0.93,0.06,1.02,-0.07,-0.17,B,2026-01-10 11:30:11
819493,0,65,71,-1.48,2.11,1.04,1.01,-0.11,-0.18,B,2026-01-10 11:30:11
820000,0,66,71,-1.22,1.07,0.35,1.01,-0.1,-0.18,B,2026-01-10 11:30:12
820513,3,69,71,-1.24,2.27,0.64,1.01,-0.1,-0.18,B,2026-01-10 11:30:12
821013,0,67,70,-1.04,2.31,0.95,1.01,-0.11,-0.18,B,2026-01-10 11:30:13
821514,0,67,71,-1.71,2.02,0.43,1.01,-0.09,-0.16,B,2026-01-10 11:30:13
822016,4,69,72,-1.19,3.27,0.99,1.01,-0.1,-0.17,B,2026-01-10 11:30:14
822523,0,68,72,-2.58,3.27,1.24,1.01,-0.11,-0.17,B,2026-01-10 11:30:14
823027,0,68,71,-1.47,2.81,1.21,1.01,-0.1,-0.16,B,2026-01-10 11:30:15
823527,0,68,70,-1.69,2.15,0.11,1.01,-0.09,-0.18,B,2026-01-10 11:30:15
824029,0,67,69,-1.42,1.79,1.3,1.01,-0.13,-0.16,B,2026-01-10 11:30:16
824548,0,65,69,-1.13,1.18,0.81,1.01,-0.1,-0.17,B,2026-01-10 11:30:16
825049,0,68,69,-0.61,0.92,1.42,1,-0.13,-0.17,B,2026-01-10 11:30:17
825562,0,71,71,-1.65,2.99,0.21,1.01,-0.11,-0.18,B,2026-01-10 11:30:17
826064,0,68,71,-1.71,4.23,-0.31,1.01,-0.11,-0.18,B,2026-01-10 11:30:18
826600,0,70,71,-1.24,2.03,0.29,1.01,-0.1,-0.18,B,2026-01-10 11:30:18
827111,0,70,70,-1.45,2.73,0.49,1.01,-0.11,-0.19,B,2026-01-10 11:30:20
828014,0,70,70,-1.45,2.76,0.82,1.01,-0.1,-0.17,B,2026-01-10 11:30:20
828459,0,70,68,-1.34,2.37,0.2,1.01,-0.09,-0.17,B,2026-01-10 11:30:20
829016,0,70,69,-1.71,0.37,0.2,1,-0.12,-0.15,B,2026-01-10 11:30:21
829492,0,68,69,-1.74,1.68,-1.01,1.01,-0.11,-0.17,B,2026-01-10 11:30:21
830004,0,70,74,-1.16,3.69,0.99,1.01,-0.08,-0.18,B,2026-01-10 11:30:22
830549,0,66,70,-0.17,3.16,0.4,1.02,-0.09,-0.18,B,2026-01-10 11:30:22
831067,0,67,70,-1.77,0.84,-0.27,1.02,-0.11,-0.16,B,2026-01-10 11:30:23
831568,0,70,72,-1.8,2.18,0.49,1.01,-0.11,-0.17,B,2026-01-10 11:30:23
832069,0,70,72,-2.15,1.92,0.69,1.01,-0.09,-0.15,B,2026-01-10 11:30:25
833212,0,68,69,-1.83,2.63,1.31,1.01,-0.1,-0.16,B,2026-01-10 11:30:25
833659,0,70,69,-1.5,2.78,0.35,1.01,-0.12,-0.16,B,2026-01-10 11:30:25
834160,0,68,69,0.63,3.92,-0.27,1.01,-0.09,-0.16,B,2026-01-10 11:30:26
834685,0,70,72,-1.97,2.03,0.44,1.01,-0.1,-0.18,B,2026-01-10 11:30:27
835389,0,67,72,-1.25,2.15,0.58,1.01,-0.09,-0.17,B,2026-01-10 11:30:27
836007,0,67,69,-1.57,2.5,1.16,1.01,-0.09,-0.16,B,2026-01-10 11:30:28
836459,0,71,70,-1.56,2.41,0.15,1.01,-0.08,-0.16,B,2026-01-10 11:30:28
836960,0,68,71,-1.59,3.24,0.2,1.01,-0.11,-0.16,B,2026-01-10 11:30:29
837506,0,68,73,-1.79,2.23,0.99,1.01,-0.11,-0.2,B,2026-01-10 11:30:29
838169,0,68,73,-1.48,2.15,0.61,1.01,-0.1,-0.18,B,2026-01-10 11:30:30
838935,0,68,73,-0.93,1.51,0.44,1.01,-0.1,-0.19,B,2026-01-10 11:30:31
839409,0,67,71,-1.1,2.11,0.43,1.01,-0.1,-0.19,B,2026-01-10 11:30:31
839909,0,72,72,-1.44,2.5,0.69,1.01,-0.1,-0.19,B,2026-01-10 11:30:32
840409,0,68,70,-1.16,3.07,0.11,1.01,-0.1,-0.19,B,2026-01-10 11:30:32
840950,0,68,74,-1.28,2.12,1.39,1.01,-0.1,-0.18,B,2026-01-10 11:30:33
841504,0,68,73,-1.27,2.96,1.07,1.01,-0.11,-0.2,B,2026-01-10 11:30:33
841950,0,70,70,-1.5,2.37,1.21,1.01,-0.09,-0.18,B,2026-01-10 11:30:34
842464,0,70,70,-1.07,3.01,0.12,1.01,-0.1,-0.19,B,2026-01-10 11:30:34
842964,0,68,70,-1.24,2.44,0.69,1,-0.11,-0.18,B,2026-01-10 11:30:35
843464,0,71,73,-1.94,2.12,0.14,1.01,-0.09,-0.17,B,2026-01-10 11:30:35
843965,0,67,71,-1.47,2.73,0.49,1.01,-0.1,-0.19,B,2026-01-10 11:30:36
844465,0,68,69,-1.85,2.02,0.99,1.01,-0.1,-0.18,B,2026-01-10 11:30:36
845001,0,68,70,-1.85,2.73,0.09,1.01,-0.11,-0.21,B,2026-01-10 11:30:37
845521,0,66,68,-1.21,2.41,0.95,1.01,-0.1,-0.19,B,2026-01-10 11:30:37
846051,0,70,71,-1.47,1.85,1.02,1.01,-0.09,-0.18,B,2026-01-10 11:30:38
846552,0,68,71,-1.54,2.27,0.84,1.01,-0.09,-0.18,B,2026-01-10 11:30:38
847068,0,65,71,-0.87,2.44,1.01,1.01,-0.08,-0.2,B,2026-01-10 11:30:39
847568,0,67,70,-1.5,1.82,0.08,1.01,-0.09,-0.2,B,2026-01-10 11:30:40
848158,0,68,70,-1.31,2.46,0.46,1.01,-0.1,-0.2,B,2026-01-10 11:30:40
848605,0,68,70,-1.33,2.98,1.36,1.01,-0.11,-0.2,B,2026-01-10 11:30:40
849106,0,68,70,-1.39,0.53,0.89,1.01,-0.1,-0.18,B,2026-01-10 11:30:41
849608,0,66,68,-1.77,2.32,0.58,1.01,-0.09,-0.19,B,2026-01-10 11:30:42
850109,0,66,67,-1.54,2.26,0.79,1.01,-0.09,-0.19,B,2026-01-10 11:30:42
850628,0,65,67,-0.58,4.5,1.22,1.01,-0.08,-0.18,B,2026-01-10 11:30:43
851141,0,68,71,-0.95,2.34,1.05,1.01,-0.1,-0.18,B,2026-01-10 11:30:43
851993,0,68,71,-0.96,3.28,1.57,1.01,-0.1,-0.17,B,2026-01-10 11:30:44
852438,0,68,66,-2.24,1.71,0.14,1.01,-0.11,-0.18,B,2026-01-10 11:30:45
853386,0,68,67,-1.5,0.87,0.55,1,-0.08,-0.21,B,2026-01-10 11:30:45
853831,0,68,70,-0.89,1.3,1.86,1.01,-0.1,-0.15,B,2026-01-10 11:30:46
854367,0,67,70,-2.11,7.36,-0.56,1.01,-0.06,-0.14,B,2026-01-10 11:30:47
855176,0,67,70,-0.41,-3.95,3.24,0.99,-0.17,-0.19,B,2026-01-10 11:30:47
855751,0,68,71,-1.33,3.31,0.81,1.01,-0.1,-0.18,B,2026-01-10 11:30:48
856198,0,70,69,-1.54,3.08,0.79,1.01,-0.11,-0.2,B,2026-01-10 11:30:48
856780,0,68,69,-1.68,2.37,0.92,1.01,-0.1,-0.18,B,2026-01-10 11:30:49
857262,5,70,73,-0.82,2.23,0.02,1,-0.11,-0.18,B,2026-01-10 11:30:49
857763,5,65,70,-1.44,3.39,1.19,1.02,-0.1,-0.2,B,2026-01-10 11:30:50
858267,6,71,72,-1.36,2.37,-0.21,1.01,-0.1,-0.19,B,2026-01-10 11:30:50
858926,6,70,72,-1.51,3.94,-0.03,1.01,-0.1,-0.2,B,2026-01-10 11:30:51
859377,5,68,68,-0.56,2.56,0.56,1.01,-0.1,-0.2,B,2026-01-10 11:30:51
859877,5,66,71,-1.73,3.69,0.29,1.01,-0.1,-0.18,B,2026-01-10 11:30:52
860379,5,71,71,-1.51,3.05,0.43,1.01,-0.12,-0.19,B,2026-01-10 11:30:52
860915,5,68,72,-2.11,4.26,-0.52,1.01,-0.09,-0.15,B,2026-01-10 11:30:53
861558,5,68,71,-0.55,3.95,-0.95,1.01,-0.1,-0.23,B,2026-01-10 11:30:54
862402,4,68,71,0.31,4.14,2.44,1.01,-0.11,-0.21,B,2026-01-10 11:30:54
862852,5,68,71,-1.76,3.71,-1.88,1.01,-0.12,-0.17,B,2026-01-10 11:30:55
863352,7,70,72,-1.13,0.21,-0.67,1.02,-0.07,-0.19,B,2026-01-10 11:30:55
863853,5,68,74,-0.99,-1.51,-0.73,1.01,-0.11,-0.2,B,2026-01-10 11:30:56
864355,8,68,71,-1.44,-2.85,0.34,1.01,-0.07,-0.27,B,2026-01-10 11:30:56
864885,6,71,74,-1.95,4.06,-0.37,1,-0.12,-0.22,B,2026-01-10 11:30:57
865418,6,66,69,-1.85,1.44,0.93,1,-0.11,-0.23,B,2026-01-10 11:30:57
865935,2,68,72,-1.45,1.98,0.02,1,-0.1,-0.23,B,2026-01-10 11:30:58
866442,4,68,68,-0.58,3.47,1.3,1,-0.11,-0.22,B,2026-01-10 11:30:58
866942,3,67,71,-1.94,4.27,0.7,1.01,-0.09,-0.19,B,2026-01-10 11:30:59
867455,2,68,71,-2.08,1.53,1.79,1.01,-0.12,-0.22,B,2026-01-10 11:30:59
867956,1,68,72,-1.24,2.44,-1.04,1.01,-0.07,-0.21,B,2026-01-10 11:31:00
868490,3,70,71,-1.5,1.82,0.06,1,-0.1,-0.22,B,2026-01-10 11:31:00
868990,4,70,71,-1.62,2.24,0.75,1,-0.11,-0.22,B,2026-01-10 11:31:01
869500,2,68,70,-1.77,3.33,0.08,1.01,-0.11,-0.22,B,2026-01-10 11:31:01
870000,3,67,70,-2.11,1.24,1.28,1.01,-0.1,-0.2,B,2026-01-10 11:31:02
870501,4,68,71,-1.15,3.79,0.32,1.01,-0.09,-0.21,B,2026-01-10 11:31:02
871052,4,63,71,-1.59,2.79,0.12,1.01,-0.11,-0.22,B,2026-01-10 11:31:03
871638,4,63,71,-1.71,3.15,0.76,1.01,-0.11,-0.21,B,2026-01-10 11:31:04
872231,1,64,71,-1.6,2.61,0.64,1.01,-0.1,-0.21,B,2026-01-10 11:31:04
872676,0,69,73,-0.92,1.76,0.75,1.01,-0.1,-0.2,B,2026-01-10 11:31:04
873177,0,68,74,-1.31,2.03,0.76,1,-0.11,-0.2,B,2026-01-10 11:31:05
873677,2,68,71,-1.53,2.05,0.82,1.01,-0.1,-0.21,B,2026-01-10 11:31:06
874178,0,71,74,-1.33,2.2,0.37,1,-0.1,-0.21,B,2026-01-10 11:31:06
874984,0,71,74,-1.22,2.84,0.76,1.01,-0.1,-0.21,B,2026-01-10 11:31:07
875443,0,70,73,-1.59,2.69,0.4,1,-0.11,-0.21,B,2026-01-10 11:31:08
876012,3,70,73,-1.48,2.98,0.98,1.01,-0.11,-0.21,B,2026-01-10 11:31:08
876457,0,67,70,-1.94,2.24,0.79,1,-0.12,-0.2,B,2026-01-10 11:31:08
876963,0,67,70,-1.25,2.53,1.66,1.01,-0.1,-0.2,B,2026-01-10 11:31:09
877858,0,67,70,-1.77,4.37,0.49,1.01,-0.1,-0.2,B,2026-01-10 11:31:11
879207,0,67,70,-1.04,3.04,0.12,1.01,-0.1,-0.21,B,2026-01-10 11:31:13
881219,0,68,71,-0.98,0,3.73,1.01,-0.09,-0.17,B,2026-01-10 11:31:14
882095,0,68,74,-1.89,2.03,0.63,1,-0.11,-0.2,B,2026-01-10 11:31:14
882595,1,68,72,-1.71,2.32,1.28,1.01,-0.1,-0.19,B,2026-01-10 11:31:15
883112,2,68,71,-1.15,2.67,0.95,1.01,-0.11,-0.21,B,2026-01-10 11:31:15
883634,0,70,71,-1.05,2.37,1.13,1.01,-0.11,-0.2,B,2026-01-10 11:31:16
884298,0,70,71,-1.19,1.33,0.23,1.01,-0.1,-0.2,B,2026-01-10 11:31:16
884773,0,68,69,-1.63,2.15,0.49,1,-0.11,-0.2,B,2026-01-10 11:31:17
885327,0,68,69,-1.57,2.37,0.84,1,-0.11,-0.21,B,2026-01-10 11:31:17
886285,1,66,68,-0.47,2.5,0.27,1.01,-0.11,-0.2,B,2026-01-10 11:31:18
886898,1,68,68,-1.47,0.93,0.7,1.01,-0.1,-0.2,B,2026-01-10 11:31:19
887706,1,67,68,-1.57,2.72,0.73,1.01,-0.11,-0.2,B,2026-01-10 11:31:20
888153,0,71,69,-1.25,2.55,0.56,1.01,-0.1,-0.21,B,2026-01-10 11:31:20
888655,0,71,72,-1.05,3.74,0.99,1.01,-0.11,-0.21,B,2026-01-10 11:31:20
889185,0,71,74,-1.21,3.31,0.96,1.01,-0.09,-0.2,B,2026-01-10 11:31:21
889687,0,71,71,-1.62,2.11,0.15,1,-0.11,-0.2,B,2026-01-10 11:31:22
890188,0,70,70,-1.39,2.85,0.29,1.01,-0.1,-0.2,B,2026-01-10 11:31:22
890690,0,68,70,-0.96,2.53,1.34,1.01,-0.1,-0.2,B,2026-01-10 11:31:23
891617,0,68,70,-1.47,2.38,0.34,1.01,-0.1,-0.2,B,2026-01-10 11:31:24
892306,0,66,70,-1.65,2.02,0.05,1,-0.11,-0.22,B,2026-01-10 11:31:27
896096,0,66,70,-0.73,2.92,0.29,1.01,-0.1,-0.21,B,2026-01-10 11:31:28
896749,0,66,70,-1.39,3.1,0.98,1,-0.11,-0.21,B,2026-01-10 11:31:29
897253,0,66,69,-1.6,2.06,0.58,1.01,-0.11,-0.21,B,2026-01-10 11:31:29
897755,0,66,69,-1.33,2.4,0.2,1.02,-0.1,-0.21,B,2026-01-10 11:31:30
898469,1,68,69,-1.5,2.79,-0.23,1,-0.11,-0.22,B,2026-01-10 11:31:30
898959,0,67,67,-1.53,2.52,0.43,1,-0.11,-0.19,B,2026-01-10 11:31:31
899724,0,67,67,-1.39,3.15,0.81,1.01,-0.1,-0.21,B,2026-01-10 11:31:32
900191,0,70,73,-1.08,0.75,1.05,1,-0.13,-0.21,B,2026-01-10 11:31:32
900727,1,73,73,-1.6,3.01,0.08,1,-0.11,-0.21,B,2026-01-10 11:31:33
901262,0,73,73,-1.39,2.43,1.25,1.01,-0.09,-0.19,B,2026-01-10 11:31:33
901762,2,68,71,-1.33,1.6,0.87,1,-0.1,-0.19,B,2026-01-10 11:31:34
902270,2,70,74,-1.15,2.02,0.73,1.01,-0.09,-0.19,B,2026-01-10 11:31:34
902771,0,71,73,-1.54,2.24,0.98,1.01,-0.1,-0.2,B,2026-01-10 11:31:34
903271,0,71,73,-1.1,2.14,1.13,1.01,-0.1,-0.19,B,2026-01-10 11:31:35
903858,0,71,71,-1.28,3.47,0.76,1,-0.1,-0.19,B,2026-01-10 11:31:36
904304,0,66,72,-1.59,4.29,0.96,1,-0.1,-0.19,B,2026-01-10 11:31:36
904805,0,71,71,-1.57,2.34,0.6,1,-0.1,-0.2,B,2026-01-10 11:31:37
905362,0,68,71,-1.19,1.86,0.63,1.01,-0.1,-0.19,B,2026-01-10 11:31:37
905862,0,70,73,-1.6,3.25,1.04,1,-0.1,-0.19,B,2026-01-10 11:31:38
906362,0,70,72,-1.86,2.18,0.53,1,-0.11,-0.18,B,2026-01-10 11:31:38
906864,0,71,71,-2.05,2,0.67,1,-0.09,-0.19,B,2026-01-10 11:31:39
907409,0,71,71,-1.31,2.67,0.67,1.01,-0.11,-0.21,B,2026-01-10 11:31:39
907909,0,71,71,-0.63,1.71,0.72,1.01,-0.11,-0.2,B,2026-01-10 11:31:40
908411,0,72,72,-1.16,3.02,1.1,1,-0.1,-0.19,B,2026-01-10 11:31:40
908912,0,68,70,-1.48,0.84,0.96,1.01,-0.1,-0.2,B,2026-01-10 11:31:41
909412,0,70,73,-1.77,2.12,0.56,1,-0.11,-0.2,B,2026-01-10 11:31:41
909952,0,70,70,-1.39,2.09,0.79,1.01,-0.1,-0.2,B,2026-01-10 11:31:42
910452,0,68,71,-1.08,2.5,0.79,1,-0.1,-0.2,B,2026-01-10 11:31:42
910952,0,67,70,-1.77,2.41,0.58,1,-0.11,-0.2,B,2026-01-10 11:31:43
911514,0,68,70,-1.53,0.92,1.16,1.01,-0.1,-0.2,B,2026-01-10 11:31:43
911961,0,73,74,-1.24,1.27,0.79,1,-0.11,-0.2,B,2026-01-10 11:31:44
912461,0,70,70,-0.98,1.73,0.26,1.01,-0.1,-0.21,B,2026-01-10 11:31:44
913017,0,71,75,-1.07,1.76,0.56,1,-0.11,-0.2,B,2026-01-10 11:31:45
913465,0,73,79,-1.51,1.62,0.4,1.01,-0.1,-0.2,B,2026-01-10 11:31:45
913977,0,71,71,-1.53,2.78,0.12,1.01,-0.1,-0.21,B,2026-01-10 11:31:46
914477,0,70,71,-1.42,2.56,0.06,1,-0.11,-0.21,B,2026-01-10 11:31:46
914978,0,71,71,-1.34,3.22,0.76,1.01,-0.11,-0.21,B,2026-01-10 11:31:47
915478,0,70,72,-1.1,3.73,0.27,1.01,-0.1,-0.2,B,2026-01-10 11:31:47
915980,0,70,71,-1.54,2.34,0.23,1.01,-0.11,-0.2,B,2026-01-10 11:31:48
916480,0,70,72,-1.45,2.06,0.9,1.01,-0.11,-0.21,B,2026-01-10 11:31:49
917177,0,71,72,-0.93,2.18,0.64,1.01,-0.1,-0.2,B,2026-01-10 11:31:49
917623,0,70,70,-1.4,2.93,0.44,1,-0.12,-0.21,B,2026-01-10 11:31:49
918125,0,70,71,-1.07,1.73,1.08,1.01,-0.11,-0.19,B,2026-01-10 11:31:50
918626,0,70,71,-1.5,3.04,0.6,1.01,-0.1,-0.2,B,2026-01-10 11:31:50
919136,0,67,70,-0.96,2.46,0.17,1,-0.11,-0.2,B,2026-01-10 11:31:51
919686,0,68,73,-1.42,2.49,1.27,1.01,-0.1,-0.2,B,2026-01-10 11:31:51
920188,0,71,74,-1.3,0.56,0.34,1,-0.1,-0.21,B,2026-01-10 11:31:52
921130,0,69,71,-1.4,2.81,0.52,1,-0.11,-0.19,B,2026-01-10 11:31:53
921625,0,71,73,-1.47,1.39,1.34,1.01,-0.1,-0.2,B,2026-01-10 11:31:53
922136,0,70,73,-1.19,1.59,0.64,1.01,-0.11,-0.21,B,2026-01-10 11:31:54
922636,0,68,69,-1.02,2.7,1.01,1.01,-0.1,-0.2,B,2026-01-10 11:31:55
923322,0,68,69,-1.4,2.78,0.44,1.01,-0.1,-0.2,B,2026-01-10 11:31:55
923780,0,68,70,-1.45,2.05,0.46,1.01,-0.1,-0.2,B,2026-01-10 11:31:56
