timestamp,flex_thumb,flex_index,flex_middle,gyro_x,gyro_y,gyro_z,accel_x,accel_y,accel_z,label,datetime
60253,28,97,70,-2.11,1.8,-0.14,-0.87,-0.41,-0.11,A,2026-01-02 09:46:35
60786,29,95,75,-1.8,1.74,-0.08,-0.88,-0.43,-0.11,A,2026-01-02 09:46:36
61295,29,97,75,0.99,-1.18,1.97,-0.89,-0.41,-0.09,A,2026-01-02 09:46:36
61796,28,96,72,-2.05,2.92,0.63,-0.89,-0.42,-0.08,A,2026-01-02 09:46:37
62346,28,95,76,1.04,6.27,14.82,-0.88,-0.4,-0.18,A,2026-01-02 09:46:37
62847,25,98,78,4.47,-2.17,3.77,-0.92,-0.28,-0.11,A,2026-01-02 09:46:38
63347,27,97,78,-2.84,1.68,-5.39,-0.9,-0.3,-0.14,A,2026-01-02 09:46:38
63900,29,97,80,-2.08,4.49,-1.1,-0.92,-0.37,-0.15,A,2026-01-02 09:46:39
64400,29,97,78,-0.17,-1.53,-3.42,-0.92,-0.32,-0.13,A,2026-01-02 09:46:39
64901,27,92,78,-1.86,2.47,0.29,-0.91,-0.37,-0.11,A,2026-01-02 09:46:40
65402,28,96,78,-3.44,1.11,-0.46,-0.9,-0.36,-0.14,A,2026-01-02 09:46:40
65958,29,98,76,-2.06,0.24,-0.31,-0.91,-0.36,-0.13,A,2026-01-02 09:46:41
66460,26,95,78,-1.62,2.14,-0.4,-0.91,-0.36,-0.13,A,2026-01-02 09:46:42
66961,27,97,78,0.75,0.99,1.39,-0.91,-0.35,-0.12,A,2026-01-02 09:46:42
67461,28,97,78,-3.11,3.05,-0.2,-0.92,-0.35,-0.13,A,2026-01-02 09:46:42
67962,29,98,78,-7.11,1.62,2.73,-0.92,-0.34,-0.1,A,2026-01-02 09:46:43
68516,28,97,79,3.45,7.86,-0.27,-0.86,-0.34,-0.2,A,2026-01-02 09:46:44
68975,29,98,80,-1.11,9.08,2.81,-0.9,-0.28,-0.16,A,2026-01-02 09:46:44
69476,29,97,78,-3.77,-1.48,-0.06,-0.93,-0.33,-0.17,A,2026-01-02 09:46:45
69997,28,97,78,-3.15,11.6,-11.27,-0.91,-0.3,-0.21,A,2026-01-02 09:46:45
70500,28,97,78,1.8,0.82,5.25,-0.95,-0.36,-0.13,A,2026-01-02 09:46:45
71055,28,94,79,-5.36,8.63,0.49,-0.94,-0.36,-0.15,A,2026-01-02 09:46:46
71519,26,95,76,3.15,-0.9,0.18,-0.93,-0.38,-0.13,A,2026-01-02 09:46:47
72047,29,98,80,-1.85,0.79,-6.41,-0.91,-0.31,-0.19,A,2026-01-02 09:46:47
72554,28,98,78,-3.54,5.42,-2.49,-0.9,-0.34,-0.15,A,2026-01-02 09:46:48
73067,29,98,80,-1.5,4.29,-0.14,-0.9,-0.33,-0.16,A,2026-01-02 09:46:48
73587,29,98,80,-0.66,4.72,-0.41,-0.93,-0.36,-0.16,A,2026-01-02 09:46:49
74089,29,98,80,-1.24,2.87,-1.39,-0.88,-0.32,-0.18,A,2026-01-02 09:46:49
74590,29,97,78,-4.69,4.6,-2.75,-0.93,-0.33,-0.19,A,2026-01-02 09:46:50
75114,29,98,78,-7.11,-0.76,0.69,-0.95,-0.37,-0.18,A,2026-01-02 09:46:50
75627,30,98,79,-2.81,2.73,3.08,-0.92,-0.36,-0.19,A,2026-01-02 09:46:51
76147,29,98,80,8.17,-2.98,7.53,-0.92,-0.35,-0.19,A,2026-01-02 09:46:51
76691,29,96,79,-138.5,-71.86,-19.73,-0.74,-0.47,-0.53,A,2026-01-02 09:46:52
77246,20,89,72,-3.04,6.56,3.05,-0.94,-0.05,-0.32,A,2026-01-02 09:46:52
77693,22,93,77,9.45,2.64,-5.62,-0.91,-0.11,-0.35,A,2026-01-02 09:46:53
78195,25,95,78,289.65,45.91,84.11,-0.85,-0.23,-0.28,A,2026-01-02 09:46:53
78749,29,93,80,9.54,-65.08,-11.63,-0.86,0.23,0,A,2026-01-02 09:46:54
79251,29,96,80,-2.69,1.31,0.75,-0.95,0.06,0.1,A,2026-01-02 09:46:54
79753,28,93,80,-2.66,3.59,-2.32,-0.96,0.04,0.14,A,2026-01-02 09:46:55
80255,28,96,78,-3.33,1.16,1.45,-0.97,0.03,0.13,A,2026-01-02 09:46:55
80756,27,94,80,-2.17,0.21,-0.12,-0.95,0.04,0.13,A,2026-01-02 09:46:56
81267,29,95,80,-4.15,5.47,1.16,-0.97,0.03,0.1,A,2026-01-02 09:46:56
81773,28,95,80,-9.37,0,-3.92,-0.93,0.04,0.11,A,2026-01-02 09:46:57
82328,28,95,79,-0.89,8.29,5.13,-0.85,0,0.3,A,2026-01-02 09:46:57
82830,26,94,80,-5.56,-14,28.08,-0.72,0.06,-0.02,A,2026-01-02 09:46:58
83330,28,93,79,-18.52,36.34,-17.66,-1.02,-0.05,0.16,A,2026-01-02 09:46:58
83830,0,62,47,3.59,-7.85,6.64,-0.86,0.03,-0.33,A,2026-01-02 09:46:59
84339,34,95,80,9.07,-22.27,4.17,-0.9,0.03,-0.29,A,2026-01-02 09:46:59
84847,33,97,80,60.81,-131.79,-35.63,-0.89,0.07,0.04,A,2026-01-02 09:47:00
85357,32,94,80,6.84,-7.53,-1.88,-0.8,-0.09,0.5,A,2026-01-02 09:47:00
85878,33,91,79,-10.92,20.26,-12.49,-0.92,0,0.56,A,2026-01-02 09:47:01
86433,32,93,76,-9.25,16.02,-4.17,-0.79,-0.05,0.45,A,2026-01-02 09:47:01
86896,33,95,78,-0.41,2.29,2.64,-0.84,-0.07,0.48,A,2026-01-02 09:47:02
87407,32,97,78,-130.81,-38.17,224.06,-0.76,0.48,0.26,A,2026-01-02 09:47:02
87956,29,98,80,3.74,10.49,-1.02,-0.82,0.36,0.23,A,2026-01-02 09:47:03
88509,28,93,80,55.68,7.74,-16.84,-0.93,0.29,-0.08,A,2026-01-02 09:47:04
89040,29,93,29,-11.98,2.43,-2.43,-0.98,0.05,-0.02,A,2026-01-02 09:47:04
89557,29,96,75,-9.18,4.79,0.78,-0.97,0.01,-0.04,A,2026-01-02 09:47:05
90064,29,98,80,-25.02,4.6,-5.56,-0.85,0.08,-0.26,A,2026-01-02 09:47:05
90577,28,96,78,-1.6,-3.91,-1.33,-0.97,0.06,-0.01,A,2026-01-02 09:47:06
91128,29,96,81,1.8,8.09,2.52,-1.01,0.08,0.05,A,2026-01-02 09:47:06
91629,28,97,78,-1.44,2.37,-4.24,-0.99,0.08,0.03,A,2026-01-02 09:47:07
92130,28,98,78,-2.17,-0.14,0.14,-0.97,0.04,0.03,A,2026-01-02 09:47:07
92686,26,98,80,-1.91,11.82,-8.9,-0.97,0.04,-0.06,A,2026-01-02 09:47:08
93145,26,98,80,-3.66,-0.98,-1.11,-0.97,0.05,-0.05,A,2026-01-02 09:47:08
93658,27,97,78,-1.19,-0.92,-0.09,-0.98,0.04,-0.02,A,2026-01-02 09:47:09
94169,26,98,79,-0.46,1.56,3.73,-0.98,0.05,-0.02,A,2026-01-02 09:47:09
94677,30,97,66,-3.51,0.4,-0.05,-0.97,0.09,-0.05,A,2026-01-02 09:47:10
95187,29,94,71,-2.32,5.57,4.69,-0.97,0.08,-0.02,A,2026-01-02 09:47:10
95697,29,94,67,0,1.11,0.32,-0.99,0.09,-0.02,A,2026-01-02 09:47:11
96215,30,93,72,-2.23,1.56,-0.53,-0.95,0.11,-0.02,A,2026-01-02 09:47:11
96768,36,92,75,-1.5,0.85,0.2,-0.97,0.07,-0.02,A,2026-01-02 09:47:12
97270,36,93,74,-5.37,-4.11,-4.98,-0.97,0.08,-0.02,A,2026-01-02 09:47:12
97772,34,93,71,-1.82,0.47,0.32,-1,0.07,-0.01,A,2026-01-02 09:47:13
98274,34,93,72,-3.79,0.14,1.18,-0.97,0.07,0.01,A,2026-01-02 09:47:13
98775,33,100,74,-7.56,-1.5,-3.45,-1.01,0.06,0.03,A,2026-01-02 09:47:14
99284,34,100,79,2.93,6.61,4.84,-1,0.08,0.02,A,2026-01-02 09:47:14
99800,35,100,80,-0.41,4.87,2.17,-0.98,0.09,0.01,A,2026-01-02 09:47:15
100356,34,99,76,2.06,3.92,2.92,-0.98,0.09,0.02,A,2026-01-02 09:47:15
100818,33,100,76,-1.53,3.21,1.44,-0.97,0.08,0.02,A,2026-01-02 09:47:16
101337,34,100,75,-7.68,-1.42,-3.47,-0.98,0.07,0.03,A,2026-01-02 09:47:16
101849,33,100,69,-5.86,6.87,1.66,-1.01,0.06,0.07,A,2026-01-02 09:47:17
102405,33,100,71,4.53,5.44,6.18,-0.97,0.11,0.08,A,2026-01-02 09:47:17
102867,34,100,71,-6.49,4.63,-7.76,-0.95,0.1,0.03,A,2026-01-02 09:47:18
103377,35,100,68,1.51,0.67,2.26,-0.96,0.09,0.02,A,2026-01-02 09:47:18
103898,36,100,69,-3.56,1.13,-2.46,-0.97,0.08,0.06,A,2026-01-02 09:47:19
104404,34,100,72,-4.2,10.06,4.03,-0.97,0.07,0.06,A,2026-01-02 09:47:19
104918,34,100,72,-3.79,-3.31,-2.61,-0.96,0.05,0.06,A,2026-01-02 09:47:20
105428,31,100,69,-3.63,0.52,-1.8,-0.97,0.04,0.1,A,2026-01-02 09:47:20
105979,31,100,72,-2.63,-1.88,0.17,-0.97,0.04,0.08,A,2026-01-02 09:47:21
106479,32,100,71,-0.12,2.44,0.79,-0.97,0.02,0.09,A,2026-01-02 09:47:21
106980,21,100,68,-2.02,-0.31,-7.04,-0.98,0.01,0.11,A,2026-01-02 09:47:22
107536,22,100,70,-2.37,3.63,0.11,-0.97,-0.01,0.09,A,2026-01-02 09:47:23
107995,21,100,69,-2.29,1.02,1.28,-0.97,0.01,0.1,A,2026-01-02 09:47:23
108496,20,100,70,-0.98,6.27,2.81,-0.99,0,0.09,A,2026-01-02 09:47:23
109050,16,100,69,-7.47,4.81,2.64,-0.99,0.06,0.03,A,2026-01-02 09:47:24
109552,13,100,68,-2.43,5.56,2.31,-0.96,0.07,0.01,A,2026-01-02 09:47:25
110108,12,100,67,1.47,-1.54,-1.02,-0.97,0.02,0.02,A,2026-01-02 09:47:25
110555,12,100,66,1.36,1.57,-0.75,-0.97,0.02,0.02,A,2026-01-02 09:47:26
111060,12,100,72,-0.44,-1.69,-0.17,-0.99,0,0.05,A,2026-01-02 09:47:26
111578,12,100,70,4.41,3.31,3.54,-1.02,0.05,0.06,A,2026-01-02 09:47:27
112129,12,100,70,-5.22,6.73,-10.4,-1.03,-0.05,-0.05,A,2026-01-02 09:47:27
112629,14,100,72,-9.47,-1.44,-12.72,-1.03,-0.11,-0.03,A,2026-01-02 09:47:28
113131,13,100,67,-0.03,-1.8,1.89,-0.98,-0.09,0,A,2026-01-02 09:47:28
113631,13,100,68,-1.22,0.84,-0.79,-0.99,-0.1,0.02,A,2026-01-02 09:47:29
114148,13,100,67,-0.15,0.34,2.15,-1,-0.12,0.01,A,2026-01-02 09:47:29
114700,13,100,72,3.92,17.07,0.6,-1.03,-0.19,-0.01,A,2026-01-02 09:47:30
115200,12,100,71,-0.43,1.68,3.1,-0.96,-0.01,-0.12,A,2026-01-02 09:47:30
115702,13,100,70,-3.4,-3.94,0.15,-0.97,-0.03,-0.11,A,2026-01-02 09:47:31
116203,14,100,66,-3.82,0.52,-0.79,-0.99,-0.03,-0.12,A,2026-01-02 09:47:31
116759,13,100,71,-1.51,2.64,1.77,-0.99,-0.01,-0.11,A,2026-01-02 09:47:32
117260,15,100,69,-0.09,2.92,0.58,-0.98,-0.02,-0.11,A,2026-01-02 09:47:32
117812,14,100,70,-4.02,3.08,-1.02,-1,-0.01,-0.1,A,2026-01-02 09:47:33
118357,12,100,71,-1.11,-0.23,-0.06,-0.98,-0.02,-0.09,A,2026-01-02 09:47:33
118857,23,100,69,-2.35,-1.57,-3.48,-0.97,-0.03,-0.1,A,2026-01-02 09:47:34
119358,0,76,29,-1.79,-0.58,1.37,-0.97,-0.05,-0.05,A,2026-01-02 09:47:34
119867,0,93,44,-1.42,4.08,4.26,-0.98,-0.04,-0.07,A,2026-01-02 09:47:35
120374,0,96,52,2.34,-3.01,4.66,-0.96,-0.01,-0.09,A,2026-01-02 09:47:35
120928,0,93,53,0.17,1.15,1.51,-1,0.02,-0.08,A,2026-01-02 09:47:36
121406,0,94,55,-1.83,4.75,0.84,-0.98,0.01,-0.07,A,2026-01-02 09:47:36
121918,0,96,53,-1.63,2.69,-1.33,-0.99,0,-0.07,A,2026-01-02 09:47:37
122419,0,98,56,-4.15,4.81,1.05,-0.98,-0.02,-0.08,A,2026-01-02 09:47:37
122961,0,98,53,-1.91,0.93,-0.53,-0.99,0,-0.08,A,2026-01-02 09:47:38
123461,0,98,55,-2.23,-1.47,0.38,-0.98,-0.01,-0.08,A,2026-01-02 09:47:38
123963,0,98,55,-0.35,2.06,3.08,-0.99,-0.01,-0.08,A,2026-01-02 09:47:39
124472,0,98,53,0.96,-5.76,4.93,-0.98,0.01,-0.08,A,2026-01-02 09:47:40
124989,0,89,43,2.4,5.13,0.24,-1.01,0.05,-0.11,A,2026-01-02 09:47:40
125491,0,87,41,-8.58,-11.18,3.56,-0.98,-0.01,-0.14,A,2026-01-02 09:47:41
126018,0,87,44,3.77,8.15,12,-0.98,0.05,0.02,A,2026-01-02 09:47:41
126528,0,87,44,6.52,1.1,5.88,-0.98,0.06,-0.08,A,2026-01-02 09:47:42
127040,0,95,45,2.11,5.04,0.43,-0.97,0.05,-0.09,A,2026-01-02 09:47:42
127549,0,88,48,0.32,3.01,-0.41,-0.98,0.05,-0.09,A,2026-01-02 09:47:43
128051,0,92,44,-0.17,3.37,0.84,-0.97,0.08,-0.1,A,2026-01-02 09:47:43
128577,0,94,47,-3.73,-0.78,0.02,-0.96,0.04,-0.11,A,2026-01-02 09:47:44
129077,0,93,47,1.88,4.67,1.21,-0.99,0.03,-0.08,A,2026-01-02 09:47:44
129595,0,97,50,-0.66,2.82,0.43,-0.98,0.05,-0.07,A,2026-01-02 09:47:45
130108,0,89,45,-3.33,3.54,1.16,-0.97,0.02,-0.07,A,2026-01-02 09:47:45
130618,0,94,49,-2,1.92,1.95,-0.98,0.05,-0.09,A,2026-01-02 09:47:46
131171,0,93,48,-2.44,-1.27,0.18,-0.97,0.06,-0.1,A,2026-01-02 09:47:46
131727,0,91,47,-0.72,3.36,2.47,-0.98,0.08,-0.08,A,2026-01-02 09:47:47
132280,0,95,48,-1.51,2.61,-0.96,-1,0.04,-0.1,A,2026-01-02 09:47:47
132830,0,93,48,-2.05,3.53,-0.15,-0.98,0.05,-0.09,A,2026-01-02 09:47:48
133330,0,93,48,-3.13,2.93,0.18,-0.99,0.05,-0.09,A,2026-01-02 09:47:48
133832,0,93,48,-0.89,4.11,1.79,-0.97,0.07,-0.1,A,2026-01-02 09:47:49
134333,0,94,47,-1.5,2.18,0.76,-0.96,0.06,-0.12,A,2026-01-02 09:47:49
134835,0,92,49,-1.86,3.01,-1.1,-0.98,0.06,-0.11,A,2026-01-02 09:47:50
135387,0,93,47,-2.08,1.92,-0.18,-0.98,0.06,-0.11,A,2026-01-02 09:47:50
135942,0,93,48,-0.81,2.06,0.75,-0.97,0.05,-0.11,A,2026-01-02 09:47:51
136388,0,93,48,-1.13,1.02,-0.08,-0.98,0.05,-0.12,A,2026-01-02 09:47:51
136940,0,97,49,-1.97,3.08,1.18,-0.98,0.06,-0.11,A,2026-01-02 09:47:52
137479,0,95,52,-1.02,2.47,1.37,-0.99,0.07,-0.11,A,2026-01-02 09:47:52
137980,0,0,0,-7.13,19.3,6.95,-1.02,0.08,-0.06,A,2026-01-02 09:47:53
138480,0,35,2,7.73,3.19,-1.59,-0.99,0.03,-0.11,A,2026-01-02 09:47:54
139018,0,36,14,-1.19,2.63,0.93,-0.97,0.04,-0.09,A,2026-01-02 09:47:54
139528,0,15,0,-3.31,2.37,0.34,-0.98,0.04,-0.1,A,2026-01-02 09:47:55
140082,0,15,0,-6.85,-3.15,-7.76,-0.96,0.02,-0.06,A,2026-01-02 09:47:55
140583,0,15,0,-3.39,1.68,-3.56,-1.01,-0.05,-0.04,A,2026-01-02 09:47:56
141131,0,15,0,0.26,2.56,0.89,-0.98,-0.06,-0.04,A,2026-01-02 09:47:56
141678,0,15,0,-5.13,0.64,-0.66,-0.95,-0.05,-0.08,A,2026-01-02 09:47:57
142197,0,15,0,-1.31,-0.66,4.11,-0.95,-0.06,-0.09,A,2026-01-02 09:47:57
142708,0,15,0,2.85,1.3,6.12,-0.97,0.03,-0.06,A,2026-01-02 09:47:58
143219,0,31,0,-8.05,-1.34,7.65,-0.96,-0.12,0.01,A,2026-01-02 09:47:58
143770,0,15,0,1.66,8.41,-1.37,-0.95,-0.09,-0.01,A,2026-01-02 09:47:59
144272,0,15,0,0.31,11.11,1.63,-0.98,-0.06,-0.02,A,2026-01-02 09:47:59
144774,0,15,0,12.2,8.23,3.6,-0.97,-0.12,-0.15,A,2026-01-02 09:48:00
145329,0,10,0,-12.67,-5.73,-11.54,-0.95,-0.11,-0.1,A,2026-01-02 09:48:00
145884,0,29,0,9.05,1.28,-2.73,-0.98,-0.1,-0.09,A,2026-01-02 09:48:01
146385,0,62,34,-1.66,-1.63,-8.85,-0.98,-0.05,-0.15,A,2026-01-02 09:48:01
146898,0,70,49,6,8.44,9.54,-0.97,0.02,-0.17,A,2026-01-02 09:48:02
147450,0,64,33,-0.29,1.07,0.73,-0.98,0.01,-0.1,A,2026-01-02 09:48:03
147950,0,62,29,0.61,-2.14,2.56,-0.99,0.01,-0.09,A,2026-01-02 09:48:03
148450,0,67,39,-7.34,3.5,4.63,-0.97,0.07,-0.09,A,2026-01-02 09:48:03
148952,0,77,41,-8.7,-0.17,-4.76,-1,0.06,-0.13,A,2026-01-02 09:48:04
149491,0,72,45,-9.01,2.72,-1.48,-0.98,0.07,-0.12,A,2026-01-02 09:48:05
149991,0,74,41,-10.14,13.53,3.54,-0.94,0.05,-0.12,A,2026-01-02 09:48:05
150547,0,56,21,-31.21,8.34,-16.32,-0.92,-0.01,-0.18,A,2026-01-02 09:48:06
150995,0,56,17,1.37,-2.56,2.53,-0.98,-0.04,-0.06,A,2026-01-02 09:48:06
151518,0,83,41,17.02,-35.11,-9.37,-0.92,0,0.03,A,2026-01-02 09:48:07
152028,0,79,29,10.87,19.04,-1.44,-0.95,-0.09,0.23,A,2026-01-02 09:48:07
152543,0,74,31,-3.34,3.85,-1.85,-0.94,-0.12,0.2,A,2026-01-02 09:48:08
153048,0,66,16,1.27,-0.75,0.82,-0.96,-0.07,0.14,A,2026-01-02 09:48:08
153549,0,64,0,-4.06,6.09,1.57,-0.95,-0.08,0.18,A,2026-01-02 09:48:09
154098,0,57,0,-15.62,-1.83,-2.79,-0.95,-0.12,0.14,A,2026-01-02 09:48:09
154600,0,15,0,-0.5,2.17,-1.88,-0.96,-0.11,0.13,A,2026-01-02 09:48:10
155101,0,34,3,-2.5,2.55,1.39,-0.97,-0.12,0.14,A,2026-01-02 09:48:10
155608,0,38,3,-10.85,7.53,4.6,-0.99,-0.05,-0.02,A,2026-01-02 09:48:11
156163,0,65,13,11.04,-7.36,1.1,-1.02,-0.04,-0.12,A,2026-01-02 09:48:11
156717,0,70,0,11.57,11.36,6.06,-1.06,0.09,-0.13,A,2026-01-02 09:48:12
157257,0,76,40,-5.39,3.04,-1.69,-0.99,0,-0.15,A,2026-01-02 09:48:12
157810,0,65,0,16.56,-1.31,-0.32,-1.01,0.01,-0.13,A,2026-01-02 09:48:13
158310,0,72,38,-3.4,5.56,-1.62,-0.98,0.03,-0.21,A,2026-01-02 09:48:13
158812,0,82,47,39.16,6.41,11.57,-0.98,0.02,-0.22,A,2026-01-02 09:48:14
159363,0,65,39,-8.27,-13.51,-13.82,-0.96,0,-0.16,A,2026-01-02 09:48:14
159912,0,65,50,-12.84,22.76,13.86,-1.01,0.04,-0.17,A,2026-01-02 09:48:15
160419,0,59,31,0.58,-1.73,1.36,-0.97,0.07,-0.19,A,2026-01-02 09:48:15
160920,0,70,41,-4.5,6.6,-6.73,-0.98,0.06,-0.18,A,2026-01-02 09:48:16
161449,0,68,11,-3.91,-1.76,-12.9,-0.99,-0.01,-0.16,A,2026-01-02 09:48:16
161958,0,66,25,9.39,-9.16,-2.69,-0.95,-0.04,-0.17,A,2026-01-02 09:48:17
162511,0,67,35,11.25,-11.28,-12.58,-0.94,-0.18,-0.01,A,2026-01-02 09:48:18
163012,0,59,0,-5.95,-7.02,-4.32,-0.97,-0.12,0.17,A,2026-01-02 09:48:18
163514,0,63,0,-4.35,3.3,-2.92,-0.94,-0.17,0.21,A,2026-01-02 09:48:19
164015,0,63,0,-1.25,1.62,-2.24,-0.93,-0.19,0.21,A,2026-01-02 09:48:19
164519,0,65,14,-1.53,1.33,-1.13,-0.93,-0.19,0.22,A,2026-01-02 09:48:20
165030,0,65,34,-1.63,-1.3,-3.44,-0.92,-0.19,0.21,A,2026-01-02 09:48:20
