timestamp,flex_thumb,flex_index,flex_middle,gyro_x,gyro_y,gyro_z,accel_x,accel_y,accel_z,label,datetime
21117,72,76,84,20.85,21.8,-2.53,-0.94,-0.09,0.37,D,2026-01-02 10:01:09
21619,72,72,81,1.91,28.2,8.5,-0.92,0.03,0.15,D,2026-01-02 10:01:10
22174,72,75,83,-3.42,-1.97,-0.08,-0.92,0.1,0.1,D,2026-01-02 10:01:11
22623,73,75,83,-6.4,12.37,-6.69,-0.96,0.03,0.15,D,2026-01-02 10:01:11
23147,72,75,84,-2.03,-1.19,1.39,-0.96,0.08,0.15,D,2026-01-02 10:01:11
23647,72,76,80,-2.79,2.58,1.04,-0.92,0.06,0.14,D,2026-01-02 10:01:12
24176,72,75,83,0.44,1.65,0.98,-0.96,0.07,0.15,D,2026-01-02 10:01:12
24677,72,76,82,1.89,1.8,-0.44,-0.97,0.09,0.15,D,2026-01-02 10:01:13
25187,72,75,81,-5.57,4.64,-4.24,-0.97,0.06,0.19,D,2026-01-02 10:01:13
25743,72,75,82,0.78,3.62,2.73,-0.93,0.1,0.13,D,2026-01-02 10:01:14
26204,73,77,82,-2.76,1.63,2.2,-0.95,0.11,0.17,D,2026-01-02 10:01:15
26716,72,75,84,-2.02,-1.22,1.95,-0.95,0.12,0.17,D,2026-01-02 10:01:15
27258,73,75,83,-4.61,1.36,1.16,-0.95,0.13,0.18,D,2026-01-02 10:01:16
27760,73,74,81,-4.08,-1.91,-2.47,-0.93,0.11,0.21,D,2026-01-02 10:01:16
28260,74,75,81,-74.08,-1.57,9.04,-0.97,0.14,0.25,D,2026-01-02 10:01:17
28773,73,74,80,-21.39,7.94,4.44,-0.94,0.06,0.3,D,2026-01-02 10:01:17
29276,78,77,81,4.5,-1.51,-4.08,-0.91,0.1,0.26,D,2026-01-02 10:01:18
29786,76,76,81,0.69,2.15,7.86,-0.93,0.12,0.28,D,2026-01-02 10:01:18
30287,77,77,82,-89.71,6.31,2.55,-0.88,-0.1,0.39,D,2026-01-02 10:01:19
30816,76,76,82,-150.99,3.05,57.92,-0.98,-0.24,0.08,D,2026-01-02 10:01:19
31366,75,77,83,-10.87,14.64,0.11,-1.02,-0.08,-0.11,D,2026-01-02 10:01:20
31918,75,76,82,0.85,1.39,-10.21,-1,-0.04,0.02,D,2026-01-02 10:01:20
32454,76,77,81,12.11,7.51,-11.56,-0.94,-0.22,-0.13,D,2026-01-02 10:01:21
32966,74,77,83,162.08,-2.47,-11.51,-0.9,-0.01,0.06,D,2026-01-02 10:01:21
33476,75,77,80,77.5,-102.31,-9.16,-1.03,0.08,0.59,D,2026-01-02 10:01:22
33986,73,76,80,0.02,3.83,0.72,-0.92,-0.04,0.41,D,2026-01-02 10:01:22
34493,73,74,81,-7.22,-1.68,-4.03,-0.88,-0.06,0.39,D,2026-01-02 10:01:23
34995,74,76,83,3.18,-0.17,0.58,-0.9,-0.06,0.32,D,2026-01-02 10:01:23
35525,74,75,81,-0.7,0.38,2.46,-0.89,-0.09,0.31,D,2026-01-02 10:01:24
36036,73,75,80,1.08,3.13,3.37,-0.87,-0.09,0.43,D,2026-01-02 10:01:24
36546,73,75,82,3.63,7.18,4.5,-0.87,-0.03,0.37,D,2026-01-02 10:01:25
37056,74,75,82,-3.07,-2.06,2.47,-0.87,-0.03,0.41,D,2026-01-02 10:01:25
37608,73,75,80,-3.42,9.04,9.66,-0.86,-0.06,0.32,D,2026-01-02 10:01:26
38110,74,76,82,-2.96,-2.03,8.31,-0.94,-0.02,0.29,D,2026-01-02 10:01:26
38611,73,76,80,-4.31,4.32,-1.88,-0.9,-0.01,0.29,D,2026-01-02 10:01:27
39160,73,77,81,-4.11,3.79,-2.29,-0.92,0,0.27,D,2026-01-02 10:01:28
39660,73,75,81,-89.76,12.84,-5.37,-0.92,-0.14,0.31,D,2026-01-02 10:01:28
40215,74,76,82,-102.66,-1.04,12.17,-0.92,-0.15,0.03,D,2026-01-02 10:01:28
40769,74,75,83,-20.4,23.13,-2.78,-1.04,-0.11,-0.24,D,2026-01-02 10:01:29
41324,73,76,82,0.29,12.21,0.21,-0.96,-0.14,-0.21,D,2026-01-02 10:01:30
41776,74,74,81,2.02,3.53,-0.55,-0.96,-0.17,-0.23,D,2026-01-02 10:01:30
42296,75,76,82,2.58,3.65,1.95,-0.96,-0.16,-0.24,D,2026-01-02 10:01:31
42847,73,76,80,-1.71,1.04,-1.37,-0.95,-0.2,-0.22,D,2026-01-02 10:01:31
43403,73,77,81,2.55,0.31,-0.17,-0.94,-0.21,-0.21,D,2026-01-02 10:01:32
43851,73,76,81,58.84,-4.17,4.27,-0.95,-0.3,-0.13,D,2026-01-02 10:01:32
44352,73,76,81,47.47,-15.89,-15.11,-0.92,-0.15,0.06,D,2026-01-02 10:01:33
44852,73,75,80,4.5,3.6,3.42,-0.97,-0.18,0.09,D,2026-01-02 10:01:33
45356,73,75,80,0.32,6.34,2.82,-0.98,-0.17,0.08,D,2026-01-02 10:01:34
45858,73,76,83,-1.76,-0.15,-2.92,-0.95,-0.12,0.05,D,2026-01-02 10:01:34
46376,73,75,83,-4.12,2.27,-0.2,-0.95,-0.17,0.03,D,2026-01-02 10:01:35
46878,73,75,81,-2.44,4.15,0.08,-0.97,-0.17,0.03,D,2026-01-02 10:01:35
47406,73,76,81,-0.44,-2.29,0.53,-0.97,-0.17,0.06,D,2026-01-02 10:01:36
47908,72,75,81,-3.22,7.39,-8.43,-1.09,-0.37,0.3,D,2026-01-02 10:01:36
48426,74,80,81,-4.26,4.64,2.47,-0.95,-0.21,0.09,D,2026-01-02 10:01:37
48955,73,75,82,-2.72,1.6,0.06,-0.93,-0.22,0.09,D,2026-01-02 10:01:37
49457,73,74,81,-2.21,5.13,1.69,-0.96,-0.21,0.09,D,2026-01-02 10:01:38
49966,73,78,81,-1.62,3.69,2.26,-0.96,-0.2,0.09,D,2026-01-02 10:01:38
50476,73,76,82,-1.69,0.37,0.64,-0.95,-0.2,0.07,D,2026-01-02 10:01:39
51007,73,76,82,59.53,29.76,44.89,-0.89,-0.08,-0.04,D,2026-01-02 10:01:39
51508,73,74,81,28.6,-12.93,-3.25,-0.97,0,-0.1,D,2026-01-02 10:01:40
52015,72,77,82,-3.01,2.69,8.9,-0.96,0.01,0.09,D,2026-01-02 10:01:40
52526,73,77,81,-2.92,2.4,2.26,-0.96,-0.02,0.16,D,2026-01-02 10:01:41
53077,72,76,81,-1.16,3.34,3.02,-0.97,-0.01,0.17,D,2026-01-02 10:01:41
53578,72,77,81,4.55,1.08,6.64,-0.97,-0.01,0.17,D,2026-01-02 10:01:42
54080,72,77,81,-4.06,-1.16,0.24,-0.96,0,0.17,D,2026-01-02 10:01:42
54631,71,76,80,-40.32,9.42,-4.08,-0.96,0.01,0.18,D,2026-01-02 10:01:43
55185,72,76,81,-24.89,5.95,27.66,-0.91,-0.25,-0.01,D,2026-01-02 10:01:44
55688,73,75,81,-8.99,8.96,-13.34,-0.84,-0.31,-0.08,D,2026-01-02 10:01:44
56242,73,76,80,-40.66,-8.6,12.87,-0.89,-0.4,-0.05,D,2026-01-02 10:01:45
56724,73,76,81,-44.84,-15.47,13.16,-0.72,-0.25,-0.15,D,2026-01-02 10:01:45
57280,73,76,81,-11.88,-3.59,-1.71,-0.9,-0.24,-0.28,D,2026-01-02 10:01:46
57780,72,76,82,64.18,-2.82,9.63,-0.97,-0.24,-0.29,D,2026-01-02 10:01:46
58280,72,76,79,208.67,21.74,35.22,-0.99,0.12,-0.19,D,2026-01-02 10:01:47
58780,72,76,80,28.38,3.92,23.22,-0.98,-0.04,0,D,2026-01-02 10:01:47
59335,74,75,81,58.67,6.23,17.62,-1.06,-0.13,0.06,D,2026-01-02 10:01:48
59805,72,77,82,48.34,-11.44,5.31,-0.89,0.18,-0.08,D,2026-01-02 10:01:48
60307,72,77,81,-7.69,-2.52,3.01,-0.91,0.11,0,D,2026-01-02 10:01:49
60816,72,76,81,-2.49,-5.54,-2.09,-0.96,0.11,0.06,D,2026-01-02 10:01:49
61326,72,77,82,0.29,4.11,7.97,-0.99,0.1,0.08,D,2026-01-02 10:01:50
61881,72,77,81,-2.82,9.19,-1.11,-0.96,0.13,0.02,D,2026-01-02 10:01:50
62435,71,76,82,-2.15,-0.79,4.7,-0.98,0.11,0.04,D,2026-01-02 10:01:51
62883,71,75,80,-0.78,-0.23,2.06,-0.97,0.08,-0.03,D,2026-01-02 10:01:51
63385,72,76,81,0.9,-0.63,1.97,-0.98,0.02,0.08,D,2026-01-02 10:01:52
63898,71,77,82,-0.21,0.34,-6.17,-0.97,0.04,0.08,D,2026-01-02 10:01:52
64398,71,77,83,0.14,0.4,14.66,-1.01,-0.09,0,D,2026-01-02 10:01:53
64899,71,76,82,-6.06,0.73,-3.88,-0.97,-0.02,0,D,2026-01-02 10:01:53
65424,71,76,81,-5.85,3.44,-1.34,-0.95,0,0.02,D,2026-01-02 10:01:54
65943,71,76,82,-19.1,0.27,-4.75,-0.98,-0.01,0.01,D,2026-01-02 10:01:54
66457,75,76,79,0.32,0.63,-0.03,-0.96,-0.04,0,D,2026-01-02 10:01:55
67002,73,75,81,1.69,1.51,2.46,-0.97,-0.03,0.02,D,2026-01-02 10:01:55
67502,74,77,84,-3.31,-1.63,-0.2,-0.99,-0.01,0.03,D,2026-01-02 10:01:56
68006,74,76,81,-1.27,0.17,2.11,-0.99,-0.02,0.02,D,2026-01-02 10:01:56
68508,74,76,81,-4.12,3.05,0.84,-0.99,-0.02,0.03,D,2026-01-02 10:01:57
69008,73,77,82,-2.03,2.73,1.04,-0.98,-0.03,0.03,D,2026-01-02 10:01:57
69540,73,74,81,-0.06,0.96,1.44,-0.98,-0.02,0.05,D,2026-01-02 10:01:58
70044,74,76,81,-1.22,4.87,-1.8,-0.98,-0.03,0.05,D,2026-01-02 10:01:58
70548,74,77,81,1.85,-0.73,-0.47,-0.99,-0.02,0.04,D,2026-01-02 10:01:59
71048,73,77,81,0.46,-0.56,4.99,-1.01,-0.01,0.04,D,2026-01-02 10:01:59
71579,74,77,82,-1.5,-5.11,-2.72,-0.99,-0.06,0.07,D,2026-01-02 10:02:00
72086,73,76,82,-5.3,-2.92,3.16,-1,-0.08,0.1,D,2026-01-02 10:02:00
72598,74,76,83,1.36,13.01,-0.09,-0.96,0,0.07,D,2026-01-02 10:02:01
73107,73,77,82,3.19,1.1,4.61,-0.87,-0.06,-0.06,D,2026-01-02 10:02:01
73630,74,77,81,0.53,-0.99,7.98,-0.99,-0.04,-0.01,D,2026-01-02 10:02:02
74139,73,77,81,-2.55,3.3,2.99,-0.97,-0.03,-0.08,D,2026-01-02 10:02:02
74689,73,76,81,-4.79,6.18,-1.53,-0.97,0.02,-0.02,D,2026-01-02 10:02:03
75245,74,76,81,1.08,2.08,1.98,-0.98,-0.01,-0.05,D,2026-01-02 10:02:04
75709,74,77,81,-0.78,2.63,2.67,-0.98,0,-0.03,D,2026-01-02 10:02:04
76210,73,78,82,-0.85,2.72,-2.02,-0.98,0,-0.03,D,2026-01-02 10:02:04
76711,73,77,81,-0.15,3.34,-0.02,-0.99,-0.02,-0.04,D,2026-01-02 10:02:05
77212,74,78,82,-3.62,2.18,-3.08,-1,0,-0.02,D,2026-01-02 10:02:06
77716,73,76,83,-1.77,1.56,1.97,-0.99,0,-0.03,D,2026-01-02 10:02:06
78268,73,76,81,-0.9,-0.03,-1.89,-0.98,0.01,-0.02,D,2026-01-02 10:02:07
78823,73,76,82,-5.54,5.65,0.67,-0.98,-0.01,0,D,2026-01-02 10:02:07
79271,73,77,80,-3.54,4.5,2.89,-0.99,-0.02,0,D,2026-01-02 10:02:08
79772,73,77,82,-0.21,0.87,2.32,-0.98,-0.01,-0.02,D,2026-01-02 10:02:08
80277,73,77,81,-6.23,5.24,-1.88,-0.98,-0.01,0,D,2026-01-02 10:02:09
80788,73,77,81,4.05,0.29,2.72,-0.95,-0.01,-0.01,D,2026-01-02 10:02:09
81290,73,78,80,-3.5,1.18,-2.32,-0.98,-0.01,0,D,2026-01-02 10:02:10
81808,72,77,81,-10.78,4.05,-4.49,-0.95,-0.03,0,D,2026-01-02 10:02:10
82324,73,76,80,-3.63,-0.87,0.24,-0.98,-0.01,0.01,D,2026-01-02 10:02:11
82878,73,77,83,-0.4,3.13,-0.09,-0.98,-0.02,0.01,D,2026-01-02 10:02:11
83379,74,77,83,3.56,2.79,-5.22,-0.98,0.01,0.08,D,2026-01-02 10:02:12
83881,73,76,81,-9.27,2.14,-1.08,-1,-0.01,0.01,D,2026-01-02 10:02:13
84557,73,76,81,-1.83,5.11,2.92,-0.99,-0.02,-0.03,D,2026-01-02 10:02:13
85006,73,76,81,-8.9,8.27,1.02,-0.95,0,-0.03,D,2026-01-02 10:02:13
85508,73,77,81,-3.77,3.19,-3.91,-1,-0.02,0,D,2026-01-02 10:02:14
86010,74,77,78,4.66,-4.98,12.05,-0.99,0.02,0.02,D,2026-01-02 10:02:14
86519,74,77,83,5.69,3.34,7.54,-1,0.03,0.07,D,2026-01-02 10:02:15
87034,74,76,81,1.13,14.47,-5.73,-0.93,0.02,-0.03,D,2026-01-02 10:02:15
87538,73,76,81,3.53,0.06,1.79,-0.98,-0.03,0.04,D,2026-01-02 10:02:16
88050,73,77,82,0.17,6.6,0.12,-0.94,0.03,0,D,2026-01-02 10:02:16
88550,73,77,81,-6.72,5.47,0.37,-1.02,-0.03,0.04,D,2026-01-02 10:02:17
89091,73,78,81,4.46,21.65,1.3,-1.03,0.01,0,D,2026-01-02 10:02:17
89597,73,77,82,-5.42,6.11,-1.3,-0.95,0.02,-0.09,D,2026-01-02 10:02:18
90107,73,76,81,-0.43,-9.13,-5.56,-1.06,0.05,-0.06,D,2026-01-02 10:02:18
90617,73,76,82,-0.69,-2.43,2.02,-0.96,-0.04,-0.04,D,2026-01-02 10:02:19
91119,73,76,81,-1.92,5.83,1.92,-0.97,-0.03,0.06,D,2026-01-02 10:02:19
91645,73,76,81,-7.65,5.11,-5.97,-1.01,-0.05,-0.01,D,2026-01-02 10:02:20
92146,73,77,82,-2.53,2.73,-0.63,-0.99,-0.02,-0.02,D,2026-01-02 10:02:20
92666,74,76,81,-1.24,3.27,-1.3,-0.99,-0.04,-0.02,D,2026-01-02 10:02:21
93222,73,77,81,-2.05,3.24,1.27,-1,-0.03,-0.02,D,2026-01-02 10:02:22
93724,73,77,82,-2.52,5.04,1.37,-0.97,-0.02,-0.03,D,2026-01-02 10:02:22
94226,73,77,82,-1.25,1.37,1.13,-0.99,-0.05,-0.05,D,2026-01-02 10:02:23
94728,73,76,80,-4.26,3.19,2.02,-0.99,-0.01,-0.02,D,2026-01-02 10:02:23
95231,74,78,82,-0.81,9.27,-3.66,-0.98,-0.07,-0.04,D,2026-01-02 10:02:24
95738,73,76,81,5.69,4.41,3.73,-1.02,-0.08,-0.07,D,2026-01-02 10:02:24
96250,73,76,81,-0.85,1.01,3.47,-0.99,-0.07,-0.05,D,2026-01-02 10:02:25
96761,73,75,81,-3.66,3.68,-1.69,-0.98,-0.07,-0.07,D,2026-01-02 10:02:25
97268,75,76,82,42.29,14.14,21.92,-0.97,0.01,-0.09,D,2026-01-02 10:02:26
97787,73,77,81,-1.73,1.33,5.15,-1.01,-0.04,-0.06,D,2026-01-02 10:02:26
98293,73,77,80,-1.62,0.53,5.1,-0.98,-0.01,-0.08,D,2026-01-02 10:02:27
98808,73,77,81,-4.64,0.2,0.95,-0.94,-0.03,-0.06,D,2026-01-02 10:02:27
99329,73,76,81,-0.46,-9.48,1.02,-0.93,-0.02,0.03,D,2026-01-02 10:02:28
99829,73,77,81,1.07,0.53,2.89,-0.97,-0.05,-0.05,D,2026-01-02 10:02:28
100329,73,76,80,-4.75,2.11,-1.34,-0.98,-0.01,-0.02,D,2026-01-02 10:02:29
100830,73,77,82,-1.5,1.85,0.21,-0.98,-0.02,-0.04,D,2026-01-02 10:02:29
101357,74,76,81,-1.3,3.08,0.35,-0.99,-0.01,-0.05,D,2026-01-02 10:02:30
101912,74,75,82,-3.37,4.17,-5.28,-0.99,-0.02,-0.03,D,2026-01-02 10:02:30
102412,73,75,84,-2.38,1.76,2.98,-0.98,-0.02,-0.04,D,2026-01-02 10:02:31
102966,73,74,81,7.02,3.15,5.36,-0.99,-0.01,-0.07,D,2026-01-02 10:02:31
103418,73,75,81,-0.05,1.85,-1.47,-0.99,-0.05,-0.06,D,2026-01-02 10:02:32
103919,73,76,82,-5.94,-1.47,-6,-0.97,-0.06,-0.01,D,2026-01-02 10:02:32
104443,73,75,80,1.44,0.4,4.49,-1,-0.05,-0.02,D,2026-01-02 10:02:33
104999,73,77,81,-4,1.31,-7.36,-1,-0.1,-0.02,D,2026-01-02 10:02:33
105499,73,77,81,1.74,1.65,3.19,-0.99,-0.08,0,D,2026-01-02 10:02:34
106001,73,76,81,-1.36,1.48,3.44,-0.97,-0.1,-0.02,D,2026-01-02 10:02:34
106556,73,76,82,-0.85,2.53,2.23,-0.98,-0.06,-0.01,D,2026-01-02 10:02:35
107003,73,77,83,0.92,1.85,0.56,-0.99,-0.07,-0.01,D,2026-01-02 10:02:35
107507,73,76,80,-2.81,2.99,0.17,-0.99,-0.07,-0.02,D,2026-01-02 10:02:36
108026,73,76,80,1.62,1.01,2.27,-0.96,-0.05,-0.05,D,2026-01-02 10:02:36
108536,73,78,82,3.24,7.28,-8.29,-1.03,0.02,-0.01,D,2026-01-02 10:02:37
109063,73,76,83,-4.02,0.2,-3.33,-1,-0.06,-0.02,D,2026-01-02 10:02:37
109618,74,77,81,-4.15,1.85,6.95,-1.01,-0.07,-0.01,D,2026-01-02 10:02:38
110119,73,76,81,-0.61,1.79,0.95,-1,-0.05,-0.06,D,2026-01-02 10:02:38
110620,74,77,81,-5.1,4.69,-4.18,-0.98,-0.07,-0.09,D,2026-01-02 10:02:39
111122,73,76,81,-2.69,5.83,1.16,-0.99,-0.08,-0.06,D,2026-01-02 10:02:39
111669,73,76,80,1.31,1.73,5.33,-0.94,-0.03,-0.11,D,2026-01-02 10:02:40
112225,73,77,81,-2.21,3.22,-0.15,-0.99,-0.04,-0.09,D,2026-01-02 10:02:40
112674,73,74,81,-0.15,1.85,0.92,-0.97,-0.05,-0.08,D,2026-01-02 10:02:41
113175,73,77,82,-0.92,1.33,1.3,-0.97,-0.03,-0.09,D,2026-01-02 10:02:41
113676,73,76,80,-1.1,3.86,2.18,-0.97,-0.05,-0.09,D,2026-01-02 10:02:42
114177,73,74,80,-1.45,3.71,0.44,-0.98,-0.02,-0.07,D,2026-01-02 10:02:42
114721,74,76,81,-1.25,6.15,0.82,-0.99,-0.05,-0.08,D,2026-01-02 10:02:43
115222,74,74,80,-2.34,0.26,-0.34,-0.98,-0.04,-0.07,D,2026-01-02 10:02:44
115724,79,75,79,-5.01,7.88,1.02,-0.99,-0.02,-0.11,D,2026-01-02 10:02:44
116226,79,75,77,1.22,-1.31,2.6,-0.97,-0.01,-0.13,D,2026-01-02 10:02:45
116728,79,75,78,-3.27,5.45,1.53,-0.97,-0.03,-0.11,D,2026-01-02 10:02:45
117245,79,76,78,-1.01,1.05,0.61,-0.98,-0.02,-0.11,D,2026-01-02 10:02:46
117749,81,76,76,-1.1,3.59,-1.33,-0.99,-0.01,-0.1,D,2026-01-02 10:02:46
118257,79,77,77,-1.1,1.97,1.05,-0.99,-0.02,-0.11,D,2026-01-02 10:02:47
118759,79,76,77,-0.02,2.06,1.98,-0.97,-0.01,-0.1,D,2026-01-02 10:02:47
119314,78,76,77,-1.95,2.93,-0.29,-1,-0.03,-0.07,D,2026-01-02 10:02:48
119807,77,77,78,-1.01,2.14,0.58,-0.99,-0.03,-0.08,D,2026-01-02 10:02:48
120317,77,76,77,-1.94,9.88,1.94,-1.01,-0.03,-0.07,D,2026-01-02 10:02:49
120869,77,77,77,-2.21,2.34,-0.85,-0.99,-0.03,-0.06,D,2026-01-02 10:02:49
121371,77,76,80,-2.98,2.82,-1.01,-0.97,-0.04,-0.07,D,2026-01-02 10:02:50
121871,76,75,78,-2.95,-0.73,3.95,-0.99,-0.03,-0.03,D,2026-01-02 10:02:50
122371,77,76,78,-2.47,-0.15,0.09,-0.98,-0.03,-0.09,D,2026-01-02 10:02:51
122877,77,76,79,-2.37,4.43,1.15,-0.98,-0.05,-0.05,D,2026-01-02 10:02:51
123430,77,77,78,-1.79,2.81,0.11,-0.98,-0.04,-0.05,D,2026-01-02 10:02:52
123983,77,76,78,-4.53,3.3,0.27,-0.96,-0.06,-0.06,D,2026-01-02 10:02:52
124447,77,75,79,-0.49,1.16,1.94,-0.98,-0.04,-0.06,D,2026-01-02 10:02:53
124999,77,76,77,-3.34,1.89,-1.25,-0.99,-0.03,-0.06,D,2026-01-02 10:02:53
125499,76,76,78,-0.17,2.03,1.5,-0.99,-0.05,-0.05,D,2026-01-02 10:02:54
